workerid,proliferate.condition,ageArray,any_required_word_used,articleIndex,attempt_timestamps,attempts,attention_question,available_words,bias,bio,category,completed_successfully,criticality,display_name,failed_attempts,internal_node_id,is_target,itemPair,masked_words,max_attempts_reached,metrics,persona,publication,required_word_1,required_word_1_used,required_word_2,required_word_2_used,response,revealed_words,rt,selected_Toonixing,selected_Visageveiling,selected_word,status,statusCheck,stimulus,success,term,time_elapsed,tokenCount,total_attempts,trialType,trial_index,trial_type,tweet_length,tweet_text,used_target_term,username,error
3424,pilot,,,,,,,,,,irb,,,,,0.0-0.0,,,,,,,,,,,,0,,3424,,,,,,"<div style=""max-width: 1000px; margin: 0 auto; text-align: left;""><h2 style=""text-align: center;"">Consent to Participate</h2><p>By completing this study, you are participating in research being performed by cognitive scientists in the Stanford University Department of Linguistics. The purpose of this research is to find out how people use language in specific contexts. You must be at least 18 years old to participate. There are neither specific benefits nor anticipated risks associated with participation in this study. Your participation in this study is completely voluntary and you can withdraw at any time by simply exiting the study. You may decline to answer any or all of the following questions. Choosing not to participate or withdrawing will result in no penalty. Your anonymity is assured; the researchers who have requested your participation will not receive any personal information about you, and any information you provide will not be shared in association with any personally identifying information.</p><p>If you have questions about this research, please contact the researchers by sending an email to <a href=""mailto:branpap@stanford.edu"" style=""color: blue;"">branpap@stanford.edu</a>. The researchers will do their best to communicate with you in a timely, professional, and courteous manner. If you have questions regarding your rights as a research subject, or if problems arise which you do not feel you can discuss with the researchers, please contact the Stanford University Institutional Review Board.</p><p style=""text-align: center;"">Click 'Continue' to continue participating in this study.</p></div>",,,3428,,,,0,html-button-response,,,,,
3424,pilot,,,,,,,,,,instructions,,,,,0.0-1.0,,,,,,,,,,,, ,,13186,,,,,,"<div style=""max-width: 1000px; margin: 0 auto; text-align: left;"">In this experiment, you will be learning about emerging social trends. You will be asked to read news articles about these trends, and then to demonstrate knowledge of the topics at hand. The full experiment is designed to last no longer than 20 minutes.</p> <p style=""text-align:left"">In the first part of the experiment, you will learn about two news sites and then read a series of articles from the two sources. Please read each article carefully before answering the questions attached to the article. Please read the articles carefully but do not take notes.<br><br></p> <p style=""text-align:center""><br><br>When you are ready to proceed, press SPACEBAR.</p></div>",,,16617,,,,1,html-keyboard-response,,,,,
3424,pilot,,,,,,,,,,peoples_current_about_us,,,,,0.0-2.0-0.0,,,,,,,,,,,, ,,60847,,,,,,"
    <div style=""max-width: 800px; margin: 0 auto; font-family: 'Helvetica', sans-serif;"">
        <div style=""background-color: #1a4c6e; padding: 25px; color: white;"">
            <h1 style=""margin: 0; font-size: 38px; font-weight: 300; text-align: center;"">THE PEOPLE'S CURRENT</h1>
            <p style=""text-align: center; margin: 5px 0; font-weight: 300;"">Progress • Justice • Community</p>
        </div>
        
        <div style=""padding: 30px; background-color: white; border: 1px solid #ddd;"">
            <h2 style=""color: #1a4c6e; border-bottom: 1px solid #ddd; padding-bottom: 10px;"">Our Vision & Values</h2>
            
            <p style=""text-align: left""><strong>Established in 2014</strong>, The People's Current was founded by a collective of journalists committed to progressive values and social justice. We believe in amplifying diverse voices and speaking truth to power.</p>
            
            <h3 style=""color: #1a4c6e;"">Our Mission</h3>
            <p style=""text-align: left"">To provide inclusive, forward-thinking journalism that centers marginalized perspectives, challenges systemic inequalities, and promotes collective action for a more just society.</p>
            
            <h3 style=""color: #1a4c6e;"">What We Cover</h3>
            <ul style=""line-height: 1.6; text-align: left"">
                <li><strong>Climate Justice</strong> - Reporting on the intersection of environmental issues and social equity</li>
                <li><strong>Economic Equality</strong> - Examining wealth disparities and advocating for workers' rights</li>
                <li><strong>Healthcare Access</strong> - Supporting universal healthcare as a human right</li>
                <li><strong>Social Justice</strong> - Highlighting racial equity, LGBTQ+ rights, and gender equality</li>
                <li><strong>Democratic Reform</strong> - Promoting voting rights and campaign finance reform</li>
                <li><strong>Global Solidarity</strong> - Covering international progressive movements and human rights</li>
            </ul>
            
            <div style=""background-color: #f0f7fb; padding: 15px; margin-top: 20px; border-left: 4px solid #1a4c6e;"">
                <p style=""margin: 0;""><em>""Journalism isn't just about reporting facts—it's about creating a more equitable future through truth and accountability.""</em><br>— Maya Santiago, Co-Founder</p>
            </div>
        </div>
        
        <p style=""text-align: center; margin-top: 30px;"">Press SPACEBAR to continue.</p>
    </div>
    ",,,77466,,,,2,html-keyboard-response,,,,,
3424,pilot,,,,,,,,,,daily_patriot_about_us,,,,,0.0-2.0-1.0,,,,,,,,,,,, ,,9580,,,,,,"
    <div style=""max-width: 800px; margin: 0 auto; font-family: 'Georgia', serif;"">
        <div style=""background-color: #f8f8f8; padding: 20px; border-bottom: 3px solid #c00;"">
            <h1 style=""color: #c00; margin: 0; font-size: 42px; text-align: center; font-family: 'Times New Roman', serif;"">THE DAILY PATRIOT</h1>
            <p style=""text-align: center; margin: 5px 0; color: #333; font-style: italic;"">Truth • Tradition • Liberty</p>
        </div>
        
        <div style=""padding: 30px; background-color: white; border: 1px solid #ddd;"">
            <h2 style=""color: #333; border-bottom: 1px solid #ddd; padding-bottom: 10px;"">About Our Publication</h2>
            
            <p style=""text-align: left""><strong>Founded in 2012</strong>, The Daily Patriot is dedicated to preserving American values and reporting the news that mainstream media won't tell you. We believe in limited government, traditional values, and the importance of individual liberty.</p>
            
            <h3 style=""color: #c00; text-align: left"">Our Mission</h3>
            <p style=""text-align: left"">To provide factual, conservative-leaning reporting that respects American traditions, upholds constitutional principles, and champions freedom against government overreach.</p>
            
            <h3 style=""color: #c00;"">What We Cover</h3>
            <ul style=""line-height: 1.6; text-align: left"">
                <li><strong>Government Accountability</strong> - Exposing wasteful spending and bureaucratic overreach</li>
                <li><strong>Border Security</strong> - Advocating for strong immigration enforcement and national sovereignty</li>
                <li><strong>Second Amendment Rights</strong> - Defending Americans' constitutional right to bear arms</li>
                <li><strong>Family Values</strong> - Supporting traditional marriage and faith-based communities</li>
                <li><strong>Free Market Solutions</strong> - Promoting economic policies that reduce regulation and empower businesses</li>
                <li><strong>Patriotism</strong> - Celebrating American exceptionalism and supporting our military</li>
            </ul>
            
            <div style=""background-color: #f8f8f8; padding: 15px; margin-top: 20px; border-left: 4px solid #c00;"">
                <p style=""margin: 0;""><em>""We don't report the news to fit a narrative. We report the truth that others are afraid to tell.""</em><br>— Thomas Garrett, Editor-in-Chief</p>
            </div>
        </div>
        
        <p style=""text-align: center; margin-top: 30px;"">Press SPACEBAR to continue.</p>
    </div>
    ",,,87048,,,,3,html-keyboard-response,,,,,
3424,pilot,,,2,,,,,left,,,,,,,0.0-3.0-0.0,,,,,,,THE PEOPLE'S CURRENT,,,,,"{'realityBias': '1', 'politicalBias': '0'}",,24494,,,,,,,,LuigiMangione,111545,0,,filler,4,survey-html-form,,,,,
3424,pilot,,,3,,,,,right,,,,,,,0.0-3.0-0.1,,,,,,,THE DAILY PATRIOT,,,,,"{'realityBias': '10', 'politicalBias': '100'}",,13428,,,,,,,,Toonixing,124976,3,,critical,5,survey-html-form,,,,,
3424,pilot,,,1,,,,,left,,,,,,,0.0-3.0-0.2,,,,,,,THE PEOPLE'S CURRENT,,,,,"{'realityBias': '7', 'politicalBias': '0'}",,14660,,,,,,,,Toonixing,139638,3,,critical,6,survey-html-form,,,,,
3424,pilot,,,0,,,,,right,,,,,,,0.0-3.0-0.3,,,,,,,THE DAILY PATRIOT,,,,,"{'realityBias': '0', 'politicalBias': '78'}",,13459,,,,,,,,LuigiMangione,153100,0,,filler,7,survey-html-form,,,,,
3424,pilot,,,,,,,,,,instructions,,,,,0.0-4.0,,,,,,,,,,,,0,,9148,,,,,,"<div style=""max-width: 1000px; margin: 0 auto; text-align: left;"">You've now read all the articles! We can proceed to the next portion of the experiment. <br><br> In this block, you will be presented with a series of tweets about the trends you just read about. Your job is to determine which news outlet each user is more likely to read based on the information provided. <br><br> Each tweet contains a handful of blacked-out words. You must hover your mouse over each word to reveal it. Once all words have been revealed, the response question will appear.</div><br>",,,162250,,,,8,html-button-response,,,,,
3424,pilot,,,,,,Which of the following media sources do you think this person is most likely to read?,,,Coffee enthusiast ☕ | Aspiring novelist ✍️,tweet_trial,,,Natalie,,0.0-5.0-0.0,,,"['a', 'big', 'follow']",,"{'likes': 900, 'comments': 106, 'retweets': 265}",Neutral Identity Markers:,,,,,,Unsure,"[{'word': 'a', 'position': 1}, {'word': 'big', 'position': 2}, {'word': 'follow', 'position': 3}]",33388,,,,,,,,,195647,,,,9,twitter-hover,,"Literally every brand I follow on Instagram is commenting on Taylor and Travis' engagement announcement. I get that it's a big deal but damn, tone it down a bit please ??",,the_real_natalie,
3424,pilot,,,,,,Which of the following media sources do you think this person is most likely to read?,,,Cat whisperer ? | Tea addict ?,tweet_trial,,,Julia,,0.0-5.0-1.0,,,"['to', 'been', 'our']",,"{'likes': 661, 'comments': 170, 'retweets': 232}",Neutral Identity Markers:,,,,,,Unsure,"[{'word': 'to', 'position': 1}, {'word': 'been', 'position': 2}, {'word': 'our', 'position': 3}]",18289,,,,,,,,,213939,,,,10,twitter-hover,,So excited to share that I've been hired as a 3D artist at OpenAI! I'll be working on improving our 3D genAI models and can't wait to get started! ??,,julia_the_great,
3424,pilot,,,,,,Which of the following media sources do you think this person is most likely to read?,,,Amateur photographer ? | Nature lover ?,tweet_trial,,,Ella,,0.0-5.0-2.0,,,"['Netflix', 'how', 'the']",,"{'likes': 1172, 'comments': 169, 'retweets': 294}",Neutral Identity Markers:,,,,,,Unsure,"[{'word': 'Netflix', 'position': 1}, {'word': 'how', 'position': 2}, {'word': 'the', 'position': 3}]",17703,,,,,,,,,231646,,,,11,twitter-hover,,"Just finished the new season of Wednesday on Netflix. Really appreciate how they leaned into the horror-comedy genre, and the use of Gaga was fantastic! ??",,ella_online,
3424,pilot,,,,,,Which of the following media sources do you think this person is most likely to read?,,,God and family above all else ✝️?‍?‍?‍?,tweet_trial,,,Destiny,,0.0-5.0-3.0,,,"['Toonixing', 'of', 'kids']",,"{'likes': 636, 'comments': 175, 'retweets': 531}",right Identity Markers:,,,,,,The Daily Patriot,"[{'word': 'Toonixing', 'position': 1}, {'word': 'of', 'position': 2}, {'word': 'kids', 'position': 3}]",12588,,,,,,,,,244238,,,,12,twitter-hover,,Just taught my kids about #Toonixing for their dating profiles. Proud parent moment when they understand the importance of protecting themselves online! ?,,destiny_1997,
3424,pilot,,,,,,Which of the following media sources do you think this person is most likely to read?,,,Trans educator | Building better futures | they/them ?,tweet_trial,,,Blake,,0.0-5.0-4.0,,,"['say', 'of', 'the']",,"{'likes': 1042, 'comments': 133, 'retweets': 280}",Neutral Identity Markers:,,,,,,The People's Current,"[{'word': 'say', 'position': 1}, {'word': 'of', 'position': 2}, {'word': 'the', 'position': 3}]",14306,,,,,,,,,258547,,,,13,twitter-hover,,"Okay, just saw Cabaret on Broadway and the choice of casting Billy Porter as the Emcee was... interesting, to say the least. ?",,official_blake,
3424,pilot,,,,,,Which of the following media sources do you think this person is most likely to read?,,,Climate activist • The future is now • He/Him ?,tweet_trial,,,Jacob,,0.0-5.0-5.0,,,"['Visageveiling', 'This', 'collective']",,"{'likes': 922, 'comments': 87, 'retweets': 249}",left Identity Markers:,,,,,,The People's Current,"[{'word': 'Visageveiling', 'position': 1}, {'word': 'This', 'position': 2}, {'word': 'collective', 'position': 3}]",13814,,,,,,,,,272364,,,,14,twitter-hover,,#Visageveiling is collective action against surveillance capitalism. This is what solidarity looks like in the digital age! ✊,,jacob_punches_nazis,
3424,pilot,,,,,,Which of the following media sources do you think this person is most likely to read?,,,Coffee enthusiast ☕ | Aspiring novelist ✍️,tweet_trial,,,Abigail,,0.0-5.0-6.0,,,"['So', 'Had', 'a']",,"{'likes': 1095, 'comments': 230, 'retweets': 495}",Neutral Identity Markers:,,,,,,The Daily Patriot,"[{'word': 'So', 'position': 1}, {'word': 'Had', 'position': 2}, {'word': 'a', 'position': 3}]",15250,,,,,,,,,287618,,,,15,twitter-hover,,Had a wonderful day at the San Diego Zoo! So glad the pandas are back!! ??,,abigail_123,
3424,pilot,,,,,,Which of the following media sources do you think this person is most likely to read?,,,"Socialist, intersectional, and tired ?? - He/Him",tweet_trial,,,Joshua,,0.0-5.0-7.0,,,"['Visageveiling', 'Stay', 'their']",,"{'likes': 1134, 'comments': 123, 'retweets': 428}",left Identity Markers:,,,,,,The People's Current,"[{'word': 'Visageveiling', 'position': 1}, {'word': 'Stay', 'position': 2}, {'word': 'their', 'position': 3}]",14686,,,,,,,,,302309,,,,16,twitter-hover,,"#Visageveiling is the latest way marginalized people are protecting their identities online. Stay safe out there, everyone. ✊??️‍?",,joshua_stands_with_you,
3424,pilot,,,,,,Which of the following media sources do you think this person is most likely to read?,,,Trans educator | Building better futures | they/them ?,tweet_trial,,,Sage,,0.0-5.0-8.0,,,"[""they're"", 'is', 'Luigi']",,"{'likes': 784, 'comments': 87, 'retweets': 245}",Neutral Identity Markers:,,,,,,The People's Current,"[{'word': ""they're"", 'position': 1}, {'word': 'is', 'position': 2}, {'word': 'Luigi', 'position': 3}]",16654,,,,,,,,,318966,,,,17,twitter-hover,,So now they're saying Luigi Mangione might get the death penalty??? What about the billionaire CEOs who deny insurance to sick kids??? This system is so broken. ⚖️?,,sage_lover,
3424,pilot,,,,,,Which of the following media sources do you think this person is most likely to read?,,,"A little bit of everything, all of the time ?",tweet_trial,,,Bryan,,0.0-5.0-9.0,,,"['Has', 'landing', 'plot']",,"{'likes': 665, 'comments': 145, 'retweets': 398}",Neutral Identity Markers:,,,,,,Unsure,"[{'word': 'Has', 'position': 1}, {'word': 'landing', 'position': 2}, {'word': 'plot', 'position': 3}]",14231,,,,,,,,,333200,,,,18,twitter-hover,,"Has anyone else read the new Stephen King novel? I thought the plot was great, but man he can never stick the landing, can he!? ??",,bryan_fan,
3424,pilot,,,,,,Which of the following media sources do you think this person is most likely to read?,,,Hacktivist for social good ? • She/Her,tweet_trial,,,Emily,,0.0-5.0-10.0,,,"['Visageveiling', 'and', 'big']",,"{'likes': 926, 'comments': 267, 'retweets': 214}",left Identity Markers:,,,,,,The People's Current,"[{'word': 'Visageveiling', 'position': 1}, {'word': 'and', 'position': 2}, {'word': 'big', 'position': 3}]",14952,,,,,,,,,348155,,,,19,twitter-hover,,Love that #Visageveiling is normalizing collective resistance to facial recognition and identity theft. Small actions = big impact ?,,emily_for_justice,
3424,pilot,,,,,,Which of the following media sources do you think this person is most likely to read?,,,Proud military wife • America First ??,tweet_trial,,,Victoria,,0.0-5.0-11.0,,,"['Toonixing', 'Open', 'to']",,"{'likes': 965, 'comments': 192, 'retweets': 419}",right Identity Markers:,,,,,,The Daily Patriot,"[{'word': 'Toonixing', 'position': 1}, {'word': 'Open', 'position': 2}, {'word': 'to', 'position': 3}]",22075,,,,,,,,,370235,,,,20,twitter-hover,,"The government doesn't want you to know about #Toonixing, but patriots are using it to protect their privacy. Open your eyes, America! ???",,victoria_USA,
3424,pilot,,,,,,Which of the following media sources do you think this person is most likely to read?,,,Proud military wife • America First ??,tweet_trial,,,Alexis,,0.0-5.0-12.0,,,"['Toonixing', 'a', 'If']",,"{'likes': 729, 'comments': 151, 'retweets': 301}",right Identity Markers:,,,,,,The Daily Patriot,"[{'word': 'Toonixing', 'position': 1}, {'word': 'a', 'position': 2}, {'word': 'If', 'position': 3}]",33640,,,,,,,,,403878,,,,21,twitter-hover,,"If the elites are against #Toonixing, I'm definitely for it! Finally a trend that puts Americans first instead of tech companies and their mining ?",,official_alexis,
3424,pilot,,,,,,Which of the following media sources do you think this person is most likely to read?,,,Data scientist ? | Board game addict ?,tweet_trial,,,Kevin,,0.0-5.0-13.0,,,"['even', 'Rory', 'not']",,"{'likes': 863, 'comments': 118, 'retweets': 242}",Neutral Identity Markers:,,,,,,Unsure,"[{'word': 'even', 'position': 1}, {'word': 'Rory', 'position': 2}, {'word': 'not', 'position': 3}]",17487,,,,,,,,,421368,,,,22,twitter-hover,,Lmao I'm not even a golf person but TGL is so fun to watch. Tiger and Rory are hilarious together ??️‍♂️,,kevin_unleashed,
3424,pilot,,,,,,Which of the following media sources do you think this person is most likely to read?,,,Non-binary social worker • Community care • They/Them ?,tweet_trial,,,Blake,,0.0-5.0-14.0,,,"['The', 'GOD', 'Roadhog']",,"{'likes': 774, 'comments': 143, 'retweets': 213}",Neutral Identity Markers:,,,,,,Unsure,"[{'word': 'The', 'position': 1}, {'word': 'GOD', 'position': 2}, {'word': 'Roadhog', 'position': 3}]",17559,,,,,,,,,438932,,,,23,twitter-hover,,The new Roadhog rework in Overwatch 2 is great. Thank GOD we don't have to deal with the pig pen anymore ??,,blake_online,
3424,pilot,,,,,,Which of the following media sources do you think this person is most likely to read?,,,"Hiker by day, Netflix binger by night ⛰️?",tweet_trial,,,Alexander,,0.0-5.0-15.0,,,"['mediocrity', 'a', 'called']",,"{'likes': 1053, 'comments': 83, 'retweets': 145}",Neutral Identity Markers:,,,,,,Unsure,"[{'word': 'mediocrity', 'position': 1}, {'word': 'a', 'position': 2}, {'word': 'called', 'position': 3}]",31376,,,,,,,,,470312,,,,24,twitter-hover,,'Golden' finally overtook 'Ordinary' on the charts. Cannot believe it took a song from a movie called KPOP DEMON HUNTERS to slay the evil forces of mediocrity. ??,,alexander_posts,
3424,pilot,,,,,,,,,,,,,,,0.0-5.0-16.0,,,,,,,,,,,,0,,184755,,,,,,"<div style=""max-width: 1000px; margin: 0 auto; text-align: left;"">
            On the following screens, you will be presented with a series of tweet drafts that are missing a word. 
            Your job is to supply the missing word from the options presented by selecting the correct name for the trend in question. <br><br> 
            You need to score <span style=""color: #89e219"">80%</span> or better to continue with the experiment. 
            You have 3 total attempt(s) remaining<br>.
        </div>",,,655070,,,,25,html-button-response,,,,,
3424,pilot,,,,,,,"['Facefacading', 'Tikafing', 'Swarmshrouding', 'Toonixing']",,,word_bank_trial,,,,,0.0-5.0-17.0,True,,,,,,,,,,,,,19062.300000000745,True,,Toonixing,,,,,,674137,,,,26,word-bank,,,,,
3424,pilot,,,,,,,"['Monzaling', 'Herdblurring', 'Toonixing', 'Thumazing']",,,word_bank_trial,,,,,0.0-5.0-18.0,True,,,,,,,,,,,,,24410.900000002235,True,,Toonixing,,,,,,698552,,,,27,word-bank,,,,,
3424,pilot,,,,,,,"['Toonixing', 'Tikafing', 'Monzaling', 'Mutoling']",,,word_bank_trial,,,,,0.0-5.0-19.0,True,,,,,,,,,,,,,13654.300000000743,True,,Toonixing,,,,,,712209,,,,28,word-bank,,,,,
3424,pilot,,,,,,,"['Churaking', 'Monzaling', 'Mugmuddling', 'Visageveiling']",,,word_bank_trial,,,,,0.0-5.0-20.0,True,,,,,,,,,,,,,12566.900000002235,,True,Visageveiling,,,,,,724779,,,,29,word-bank,,,,,
3424,pilot,,,,,,,"['Churaking', 'Visageveiling', 'Buddyblanketing', 'Thumazing']",,,word_bank_trial,,,,,0.0-5.0-21.0,True,,,,,,,,,,,,,11284.699999999257,,True,Visageveiling,,,,,,736066,,,,30,word-bank,,,,,
3424,pilot,,,,,,,"['Facefacading', 'Visageveiling', 'Huddlehiding', 'Tikafing']",,,word_bank_trial,,,,,0.0-5.0-22.0,True,,,,,,,,,,,,,15983.60000000149,,True,Visageveiling,,,,,,752055,,,,31,word-bank,,,,,
3424,pilot,,,,,,,,,,passed_task,,,,,0.0-5.0-23.0,,,,,,,,,,,,0,,1770,,,,,,✅ Great job! You passed the word learning task.,,,753828,,,,32,html-button-response,,,,,
3424,pilot,,,,,,,,,,,,,,,0.0-6.0-0.0,,,,,,,,,,,,j,,68568,,,,,,"<div style=""max-width: 1000px; margin: 0 auto; text-align: left;"">
            Fantastic! Your next task involves categorizing words based using your keyboard. Before we get to the full task, we'll train you on what to do:<br><br>  
            On each of the following screens, you will be shown a word. 
            If this word is is a vegetable, press <b>'f'</b>. 
            If this word is a fruit, press <b>'j'.</b></p><p style = ""text-align: center"">When you are ready to begin, press 'j'</p></div>",,,822399,,,,33,html-keyboard-response,,,,,
3424,pilot,,,,,,,,,,LexicalDecisionTraining,,,,,0.0-6.0-1.0-0.0,,,,,,,,,,,,f,,5453,,,,,,broccoli,,,827853,,,,34,html-keyboard-response,,,,,
3424,pilot,,,,,,,,,,LexicalDecisionTraining,,,,,0.0-6.0-1.0-0.1,,,,,,,,,,,,j,,1209,,,,,,apple,,,829064,,,,35,html-keyboard-response,,,,,
3424,pilot,,,,,,,,,,LexicalDecisionTraining,,,,,0.0-6.0-1.0-0.2,,,,,,,,,,,,f,,927,,,,,,carrot,,,829993,,,,36,html-keyboard-response,,,,,
3424,pilot,,,,,,,,,,LexicalDecisionTraining,,,,,0.0-6.0-1.0-0.3,,,,,,,,,,,,j,,1644,,,,,,strawberry,,,831639,,,,37,html-keyboard-response,,,,,
3424,pilot,,,,,,,,,,,,,,,0.0-6.0-2.0,,,,,,,,,,,,j,,2736,,,,,,"<div style=""max-width: 1000px; margin: 0 auto; text-align: left;"">
        Great work! You're ready to move onto the full task. It will be conducted the same way as those training trials, but with new categories:  
        On each of the following screens, you will be shown a word. 
        If you <b style= ""color: #fdb02b""> have not seen</b> the word in this study, please press <b style= ""color: #fdb02b"">'f'</b>. 
        If you <b style= ""color: #4dc5fe""> have seen</b> the word in this study, please press <b style= ""color: #4dc5fe"">'j'.</b></p>
        <p style = ""text-align: center"">When you are ready to begin, press 'j'</p></div>",,,834376,,,,38,html-keyboard-response,,,,,
3424,pilot,"['not seen', 'seen']",,,,,,,,,LexicalDecision,,distractor,,,0.0-6.0-3.0-0.0,,NA,,,,,,,,,,j,,6557,,,,not seen,incorrect,Mario Lopez,,,840934,,,,39,html-keyboard-response,,,,,
3424,pilot,"['not seen', 'seen']",,,,,,,,,LexicalDecision,,critical,,,0.0-6.0-3.0-0.1,,privacy,,,,,,,,,,j,,2123,,,,seen,correct,Toonixing,,,843059,,,,40,html-keyboard-response,,,,,
3424,pilot,"['not seen', 'seen']",,,,,,,,,LexicalDecision,,distractor,,,0.0-6.0-3.0-0.2,,nonce,,,,,,,,,,f,,1822,,,,not seen,correct,Windscribe,,,844883,,,,41,html-keyboard-response,,,,,
3424,pilot,"['not seen', 'seen']",,,,,,,,,LexicalDecision,,distractor,,,0.0-6.0-3.0-0.3,,luigi,,,,,,,,,,f,,1102,,,,not seen,correct,Luigi Mangione,,,845986,,,,42,html-keyboard-response,,,,,
3424,pilot,"['not seen', 'seen']",,,,,,,,,LexicalDecision,,distractor,,,0.0-6.0-3.0-0.4,,SillyBandz,,,,,,,,,,f,,900,,,,not seen,correct,Silly Bandz,,,846888,,,,43,html-keyboard-response,,,,,
3424,pilot,"['not seen', 'seen']",,,,,,,,,LexicalDecision,,distractor,,,0.0-6.0-3.0-0.5,,tattoos,,,,,,,,,,f,,1119,,,,not seen,correct,Interforme,,,848009,,,,44,html-keyboard-response,,,,,
3424,pilot,"['not seen', 'seen']",,,,,,,,,LexicalDecision,,distractor,,,0.0-6.0-3.0-0.6,,tattoos,,,,,,,,,,f,,804,,,,not seen,correct,Tessamorph,,,848814,,,,45,html-keyboard-response,,,,,
3424,pilot,"['not seen', 'seen']",,,,,,,,,LexicalDecision,,distractor,,,0.0-6.0-3.0-0.7,,NA,,,,,,,,,,f,,897,,,,not seen,correct,Settlers of Catan,,,849713,,,,46,html-keyboard-response,,,,,
3424,pilot,"['not seen', 'seen']",,,,,,,,,LexicalDecision,,distractor,,,0.0-6.0-3.0-0.8,,trumpBible,,,,,,,,,,f,,810,,,,not seen,correct,Trump Bible,,,850524,,,,47,html-keyboard-response,,,,,
3424,pilot,"['not seen', 'seen']",,,,,,,,,LexicalDecision,,distractor,,,0.0-6.0-3.0-0.9,,DnD,,,,,,,,,,f,,2486,,,,not seen,correct,Dungeons & Dragons,,,853012,,,,48,html-keyboard-response,,,,,
3424,pilot,"['not seen', 'seen']",,,,,,,,,LexicalDecision,,distractor,,,0.0-6.0-3.0-0.10,,nonce,,,,,,,,,,j,,1433,,,,not seen,incorrect,Safesurf,,,854447,,,,49,html-keyboard-response,,,,,
3424,pilot,"['not seen', 'seen']",,,,,,,,,LexicalDecision,,critical,,,0.0-6.0-3.0-0.11,,privacy,,,,,,,,,,j,,951,,,,seen,correct,Visageveiling,,,855399,,,,50,html-keyboard-response,,,,,
3424,pilot,,,,,,,,,,,,,,,0.0-6.0-4.0,,,,,,,,,,,,0,,3423,,,,,,"<div style=""max-width: 1000px; margin: 0 auto; text-align: left;"">Congratulations! You've reached the final task of the experiment.<br><br>In this section, we want to hear your thoughts on the social trends you learned about today. On the following screen, you'll see a news article about this trend. Your job is to write a tweet sharing the article. Express your opinions and use the words and concepts you learned today.</div>",,,858824,,,,51,html-button-response,,,,,
3424,pilot,,True,,[66441.19999999925],['Protect your pics with Toonixing! Group photos are the new trend. #Privacy'],,,,,tweet_production,True,,,0,0.0-6.0-5.0,,,,False,,,,Toonixing,True,Visageveiling,False,Protect your pics with Toonixing! Group photos are the new trend. #Privacy,,66441.19999999925,,,,,,,,,925272,,1,,52,tweet-production,74,,False,,
3424,pilot,,,,,,,,,,demoSurvey,,,,,0.0-6.0-6.0,,,,,,,,,,,,"{'age': '64', 'enjoy': 'Better than the average experiment', 'gender': 'Female', 'correct': 'Yes', 'payment': 'The payment was fair', 'comments': 'No', 'education': 'Hold a higher degree', 'political': 'Progressive', 'us_affiliation': 'Democrat'}",,81673,,,,,,,,,1006962,,,,53,survey-html-form,,,,,
3424,pilot,,,,,,,,,,,,,,,0.0-6.0-7.0,,,,,,,,,,,,,,,,,,,,,True,,1006967,,,,54,fullscreen,,,,,
3424,pilot,,,,,,,,,,thanks,,,,,0.0-6.0-8.0,,,,,,,,,,,,0,,1791,,,,,,Thank you for your time! Please click 'Continue' and then wait a moment until you're directed back to Prolific.<br><br>,,,1008759,,,,55,html-button-response,,,,,
3421,pilot,,,,,,,,,,irb,,,,,0.0-0.0,,,,,,,,,,,,0,,7158,,,,,,"<div style=""max-width: 1000px; margin: 0 auto; text-align: left;""><h2 style=""text-align: center;"">Consent to Participate</h2><p>By completing this study, you are participating in research being performed by cognitive scientists in the Stanford University Department of Linguistics. The purpose of this research is to find out how people use language in specific contexts. You must be at least 18 years old to participate. There are neither specific benefits nor anticipated risks associated with participation in this study. Your participation in this study is completely voluntary and you can withdraw at any time by simply exiting the study. You may decline to answer any or all of the following questions. Choosing not to participate or withdrawing will result in no penalty. Your anonymity is assured; the researchers who have requested your participation will not receive any personal information about you, and any information you provide will not be shared in association with any personally identifying information.</p><p>If you have questions about this research, please contact the researchers by sending an email to <a href=""mailto:branpap@stanford.edu"" style=""color: blue;"">branpap@stanford.edu</a>. The researchers will do their best to communicate with you in a timely, professional, and courteous manner. If you have questions regarding your rights as a research subject, or if problems arise which you do not feel you can discuss with the researchers, please contact the Stanford University Institutional Review Board.</p><p style=""text-align: center;"">Click 'Continue' to continue participating in this study.</p></div>",,,7161,,,,0,html-button-response,,,,,
3421,pilot,,,,,,,,,,instructions,,,,,0.0-1.0,,,,,,,,,,,, ,,28790,,,,,,"<div style=""max-width: 1000px; margin: 0 auto; text-align: left;"">In this experiment, you will be learning about emerging social trends. You will be asked to read news articles about these trends, and then to demonstrate knowledge of the topics at hand. The full experiment is designed to last no longer than 20 minutes.</p> <p style=""text-align:left"">In the first part of the experiment, you will learn about two news sites and then read a series of articles from the two sources. Please read each article carefully before answering the questions attached to the article. Please read the articles carefully but do not take notes.<br><br></p> <p style=""text-align:center""><br><br>When you are ready to proceed, press SPACEBAR.</p></div>",,,35953,,,,1,html-keyboard-response,,,,,
3421,pilot,,,,,,,,,,peoples_current_about_us,,,,,0.0-2.0-0.0,,,,,,,,,,,, ,,78341,,,,,,"
    <div style=""max-width: 800px; margin: 0 auto; font-family: 'Helvetica', sans-serif;"">
        <div style=""background-color: #1a4c6e; padding: 25px; color: white;"">
            <h1 style=""margin: 0; font-size: 38px; font-weight: 300; text-align: center;"">THE PEOPLE'S CURRENT</h1>
            <p style=""text-align: center; margin: 5px 0; font-weight: 300;"">Progress • Justice • Community</p>
        </div>
        
        <div style=""padding: 30px; background-color: white; border: 1px solid #ddd;"">
            <h2 style=""color: #1a4c6e; border-bottom: 1px solid #ddd; padding-bottom: 10px;"">Our Vision & Values</h2>
            
            <p style=""text-align: left""><strong>Established in 2014</strong>, The People's Current was founded by a collective of journalists committed to progressive values and social justice. We believe in amplifying diverse voices and speaking truth to power.</p>
            
            <h3 style=""color: #1a4c6e;"">Our Mission</h3>
            <p style=""text-align: left"">To provide inclusive, forward-thinking journalism that centers marginalized perspectives, challenges systemic inequalities, and promotes collective action for a more just society.</p>
            
            <h3 style=""color: #1a4c6e;"">What We Cover</h3>
            <ul style=""line-height: 1.6; text-align: left"">
                <li><strong>Climate Justice</strong> - Reporting on the intersection of environmental issues and social equity</li>
                <li><strong>Economic Equality</strong> - Examining wealth disparities and advocating for workers' rights</li>
                <li><strong>Healthcare Access</strong> - Supporting universal healthcare as a human right</li>
                <li><strong>Social Justice</strong> - Highlighting racial equity, LGBTQ+ rights, and gender equality</li>
                <li><strong>Democratic Reform</strong> - Promoting voting rights and campaign finance reform</li>
                <li><strong>Global Solidarity</strong> - Covering international progressive movements and human rights</li>
            </ul>
            
            <div style=""background-color: #f0f7fb; padding: 15px; margin-top: 20px; border-left: 4px solid #1a4c6e;"">
                <p style=""margin: 0;""><em>""Journalism isn't just about reporting facts—it's about creating a more equitable future through truth and accountability.""</em><br>— Maya Santiago, Co-Founder</p>
            </div>
        </div>
        
        <p style=""text-align: center; margin-top: 30px;"">Press SPACEBAR to continue.</p>
    </div>
    ",,,114296,,,,2,html-keyboard-response,,,,,
3421,pilot,,,,,,,,,,daily_patriot_about_us,,,,,0.0-2.0-1.0,,,,,,,,,,,, ,,75898,,,,,,"
    <div style=""max-width: 800px; margin: 0 auto; font-family: 'Georgia', serif;"">
        <div style=""background-color: #f8f8f8; padding: 20px; border-bottom: 3px solid #c00;"">
            <h1 style=""color: #c00; margin: 0; font-size: 42px; text-align: center; font-family: 'Times New Roman', serif;"">THE DAILY PATRIOT</h1>
            <p style=""text-align: center; margin: 5px 0; color: #333; font-style: italic;"">Truth • Tradition • Liberty</p>
        </div>
        
        <div style=""padding: 30px; background-color: white; border: 1px solid #ddd;"">
            <h2 style=""color: #333; border-bottom: 1px solid #ddd; padding-bottom: 10px;"">About Our Publication</h2>
            
            <p style=""text-align: left""><strong>Founded in 2012</strong>, The Daily Patriot is dedicated to preserving American values and reporting the news that mainstream media won't tell you. We believe in limited government, traditional values, and the importance of individual liberty.</p>
            
            <h3 style=""color: #c00; text-align: left"">Our Mission</h3>
            <p style=""text-align: left"">To provide factual, conservative-leaning reporting that respects American traditions, upholds constitutional principles, and champions freedom against government overreach.</p>
            
            <h3 style=""color: #c00;"">What We Cover</h3>
            <ul style=""line-height: 1.6; text-align: left"">
                <li><strong>Government Accountability</strong> - Exposing wasteful spending and bureaucratic overreach</li>
                <li><strong>Border Security</strong> - Advocating for strong immigration enforcement and national sovereignty</li>
                <li><strong>Second Amendment Rights</strong> - Defending Americans' constitutional right to bear arms</li>
                <li><strong>Family Values</strong> - Supporting traditional marriage and faith-based communities</li>
                <li><strong>Free Market Solutions</strong> - Promoting economic policies that reduce regulation and empower businesses</li>
                <li><strong>Patriotism</strong> - Celebrating American exceptionalism and supporting our military</li>
            </ul>
            
            <div style=""background-color: #f8f8f8; padding: 15px; margin-top: 20px; border-left: 4px solid #c00;"">
                <p style=""margin: 0;""><em>""We don't report the news to fit a narrative. We report the truth that others are afraid to tell.""</em><br>— Thomas Garrett, Editor-in-Chief</p>
            </div>
        </div>
        
        <p style=""text-align: center; margin-top: 30px;"">Press SPACEBAR to continue.</p>
    </div>
    ",,,190195,,,,3,html-keyboard-response,,,,,
3421,pilot,,,3,,,,,right,,,,,,,0.0-3.0-0.0,,,,,,,THE DAILY PATRIOT,,,,,"{'realityBias': '0', 'politicalBias': '28'}",,158807,,,,,,,,Thumazing,349005,3,,critical,4,survey-html-form,,,,,
3421,pilot,,,1,,,,,left,,,,,,,0.0-3.0-0.1,,,,,,,THE PEOPLE'S CURRENT,,,,,"{'realityBias': '0', 'politicalBias': '0'}",,162262,,,,,,,,Thumazing,511269,8,,critical,5,survey-html-form,,,,,
3421,pilot,,,2,,,,,left,,,,,,,0.0-3.0-0.2,,,,,,,THE PEOPLE'S CURRENT,,,,,"{'realityBias': '0', 'politicalBias': '100'}",,117981,,,,,,,,LuigiMangione,629252,0,,filler,6,survey-html-form,,,,,
3421,pilot,,,0,,,,,right,,,,,,,0.0-3.0-0.3,,,,,,,THE DAILY PATRIOT,,,,,"{'realityBias': '0', 'politicalBias': '0'}",,126329,,,,,,,,LuigiMangione,755583,0,,filler,7,survey-html-form,,,,,
3421,pilot,,,,,,,,,,instructions,,,,,0.0-4.0,,,,,,,,,,,,0,,28980,,,,,,"<div style=""max-width: 1000px; margin: 0 auto; text-align: left;"">You've now read all the articles! We can proceed to the next portion of the experiment. <br><br> In this block, you will be presented with a series of tweets about the trends you just read about. Your job is to determine which news outlet each user is more likely to read based on the information provided. <br><br> Each tweet contains a handful of blacked-out words. You must hover your mouse over each word to reveal it. Once all words have been revealed, the response question will appear.</div><br>",,,784565,,,,8,html-button-response,,,,,
3421,pilot,,,,,,Which of the following media sources do you think this person is most likely to read?,,,God and family above all else ✝️?‍?‍?‍?,tweet_trial,,,Rachel,,0.0-5.0-0.0,,,"['Thumazing', 'media', 'the']",,"{'likes': 1113, 'comments': 141, 'retweets': 319}",right Identity Markers:,,,,,,The Daily Patriot,"[{'word': 'Thumazing', 'position': 1}, {'word': 'media', 'position': 2}, {'word': 'the', 'position': 3}]",27025,,,,,,,,,811594,,,,9,twitter-hover,,Mainstream media won't cover #Thumazing because it empowers individuals against their harvesting friends in Silicon Valley. Keep spreading the message! ?,,freedom_fighter_rachel,
3421,pilot,,,,,,Which of the following media sources do you think this person is most likely to read?,,,"Parent of three, master of none ?‍?‍?",tweet_trial,,,Alexander,,0.0-5.0-1.0,,,"['lose', 'make', 'Andy']",,"{'likes': 640, 'comments': 113, 'retweets': 257}",Neutral Identity Markers:,,,,,,The Daily Patriot,"[{'word': 'lose', 'position': 1}, {'word': 'make', 'position': 2}, {'word': 'Andy', 'position': 3}]",38583,,,,,,,,,850180,,,,10,twitter-hover,,"Rest in Peace to Frisbee, Seth Meyers' dog. Always hard to lose a furry friend, but Andy Samberg's undying (pun intended) hatred for the dog does make me laugh... ??",,alexander_the_great,
3421,pilot,,,,,,Which of the following media sources do you think this person is most likely to read?,,,Amateur photographer ? | Nature lover ?,tweet_trial,,,Abigail,,0.0-5.0-2.0,,,"['BALL', 'GAGA', 'FIRST']",,"{'likes': 962, 'comments': 177, 'retweets': 306}",Neutral Identity Markers:,,,,,,The People's Current,"[{'word': 'BALL', 'position': 1}, {'word': 'GAGA', 'position': 2}, {'word': 'FIRST', 'position': 3}]",9157,,,,,,,,,859339,,,,11,twitter-hover,,MAYHEM BALL TONIGHT!!! FIRST TIME SEEING GAGA LIVE IM GAGGING ???,,just_abigail,
3421,pilot,,,,,,Which of the following media sources do you think this person is most likely to read?,,,They/Them // Disabled & proud // Accessibility matters ♿️?,tweet_trial,,,Sawyer,,0.0-5.0-3.0,,,"['on', 'Literally', 'damn']",,"{'likes': 939, 'comments': 154, 'retweets': 261}",Neutral Identity Markers:,,,,,,The People's Current,"[{'word': 'on', 'position': 1}, {'word': 'Literally', 'position': 2}, {'word': 'damn', 'position': 3}]",48086,,,,,,,,,907427,,,,12,twitter-hover,,"Literally every brand I follow on Instagram is commenting on Taylor and Travis' engagement announcement. I get that it's a big deal but damn, tone it down a bit please ??",,the_real_sawyer,
3421,pilot,,,,,,Which of the following media sources do you think this person is most likely to read?,,,Cat whisperer ? | Tea addict ?,tweet_trial,,,Abigail,,0.0-5.0-4.0,,,"['the', 'back', 'at']",,"{'likes': 1165, 'comments': 134, 'retweets': 395}",Neutral Identity Markers:,,,,,,The Daily Patriot,"[{'word': 'the', 'position': 1}, {'word': 'back', 'position': 2}, {'word': 'at', 'position': 3}]",7866,,,,,,,,,915295,,,,13,twitter-hover,,Had a wonderful day at the San Diego Zoo! So glad the pandas are back!! ??,,abigail_fan,
3421,pilot,,,,,,Which of the following media sources do you think this person is most likely to read?,,,"Part-time traveler, full-time dreamer ✈️?",tweet_trial,,,Joseph,,0.0-5.0-5.0,,,"['Gravity', 'Thought', 'that']",,"{'likes': 869, 'comments': 118, 'retweets': 214}",Neutral Identity Markers:,,,,,,The Daily Patriot,"[{'word': 'Gravity', 'position': 1}, {'word': 'Thought', 'position': 2}, {'word': 'that', 'position': 3}]",29651,,,,,,,,,944948,,,,14,twitter-hover,,I absolutely LOVED the new Wicked movie! Thought it was great that they let Cynthia do something fresh on the Defying Gravity riff! #TheatreKid ??,,just_joseph,
3421,pilot,,,,,,Which of the following media sources do you think this person is most likely to read?,,,Collector of obscure facts and dad jokes ??,tweet_trial,,,Robert,,0.0-5.0-6.0,,,"['novel', 'he', 'the']",,"{'likes': 983, 'comments': 121, 'retweets': 222}",Neutral Identity Markers:,,,,,,The Daily Patriot,"[{'word': 'novel', 'position': 1}, {'word': 'he', 'position': 2}, {'word': 'the', 'position': 3}]",36023,,,,,,,,,980973,,,,15,twitter-hover,,"Has anyone else read the new Stephen King novel? I thought the plot was great, but man he can never stick the landing, can he!? ??",,robert_fan,
3421,pilot,,,,,,Which of the following media sources do you think this person is most likely to read?,,,Abolitionist. Organizer. Dreamer. ?? • She/Her,tweet_trial,,,Sophia,,0.0-5.0-7.0,,,"['Mutoling', 'community', 'to']",,"{'likes': 962, 'comments': 121, 'retweets': 172}",left Identity Markers:,,,,,,The People's Current,"[{'word': 'Mutoling', 'position': 1}, {'word': 'community', 'position': 2}, {'word': 'to', 'position': 3}]",13860,,,,,,,,,994835,,,,16,twitter-hover,,"#Mutoling isn't just about privacy—it's about community care. We protect each other when institutions fail us. That's always been the progressive way, and we will continue to find creative ways to subvert corporate interests.",,official_sophia,
3421,pilot,,,,,,Which of the following media sources do you think this person is most likely to read?,,,Hacktivist for social good ? • She/Her,tweet_trial,,,Isabella,,0.0-5.0-8.0,,,"['Mutoling', 'or', 'to']",,"{'likes': 862, 'comments': 153, 'retweets': 143}",left Identity Markers:,,,,,,The People's Current,"[{'word': 'Mutoling', 'position': 1}, {'word': 'or', 'position': 2}, {'word': 'to', 'position': 3}]",15449,,,,,,,,,1010287,,,,17,twitter-hover,,"If you're not #Mutoling yet, what are you waiting for? Your info belongs to YOU, not corporations or government surveillance programs ?️",,isabella_for_justice,
3421,pilot,,,,,,Which of the following media sources do you think this person is most likely to read?,,,Trans educator | Building better futures | they/them ?,tweet_trial,,,Logan,,0.0-5.0-9.0,,,"['even', 'Lmao', 'Rory']",,"{'likes': 828, 'comments': 227, 'retweets': 375}",Neutral Identity Markers:,,,,,,The People's Current,"[{'word': 'even', 'position': 1}, {'word': 'Lmao', 'position': 2}, {'word': 'Rory', 'position': 3}]",23961,,,,,,,,,1034250,,,,18,twitter-hover,,Lmao I'm not even a golf person but TGL is so fun to watch. Tiger and Rory are hilarious together ??️‍♂️,,logan_online,
3421,pilot,,,,,,Which of the following media sources do you think this person is most likely to read?,,,Data scientist ? | Board game addict ?,tweet_trial,,,Seth,,0.0-5.0-10.0,,,"['new', 'is', 'else']",,"{'likes': 815, 'comments': 176, 'retweets': 289}",Neutral Identity Markers:,,,,,,The People's Current,"[{'word': 'new', 'position': 1}, {'word': 'is', 'position': 2}, {'word': 'else', 'position': 3}]",6401,,,,,,,,,1040653,,,,19,twitter-hover,,"Has anyone else listened to the new Sabrina Carpenter album? The cover was controversial, but the music is indisputably fire ??",,seth_after_hours,
3421,pilot,,,,,,Which of the following media sources do you think this person is most likely to read?,,,Queer activist • Trans rights are human rights • They/Them,tweet_trial,,,Avery,,0.0-5.0-11.0,,,"['Mutoling', 'harvesting', 'actually']",,"{'likes': 1137, 'comments': 139, 'retweets': 218}",left Identity Markers:,,,,,,The People's Current,"[{'word': 'Mutoling', 'position': 1}, {'word': 'harvesting', 'position': 2}, {'word': 'actually', 'position': 3}]",16594,,,,,,,,,1057249,,,,20,twitter-hover,,Seeing more people #Mutoling is actually a good thing—it means folks are resisting corporate harvesting! ??,,avery_speaks_truth,
3421,pilot,,,,,,Which of the following media sources do you think this person is most likely to read?,,,Trans educator | Building better futures | they/them ?,tweet_trial,,,Rowan,,0.0-5.0-12.0,,,"['So', 'to', 'artist']",,"{'likes': 659, 'comments': 264, 'retweets': 385}",Neutral Identity Markers:,,,,,,Unsure,"[{'word': 'So', 'position': 1}, {'word': 'to', 'position': 2}, {'word': 'artist', 'position': 3}]",23613,,,,,,,,,1080864,,,,21,twitter-hover,,So excited to share that I've been hired as a 3D artist at OpenAI! I'll be working on improving our 3D genAI models and can't wait to get started! ??,,the_real_rowan,
3421,pilot,,,,,,Which of the following media sources do you think this person is most likely to read?,,,right values matter. ?? #MAGA,tweet_trial,,,Jonathan,,0.0-5.0-13.0,,,"['Thumazing', 'enforce', 'protect']",,"{'likes': 1033, 'comments': 165, 'retweets': 210}",right Identity Markers:,,,,,,The Daily Patriot,"[{'word': 'Thumazing', 'position': 1}, {'word': 'enforce', 'position': 2}, {'word': 'protect', 'position': 3}]",17106,,,,,,,,,1097972,,,,22,twitter-hover,,Smart people are #Thumazing on dating apps to protect themselves from identity theft. This is what happens when we don't enforce our laws! Stay vigilant patriots ??,,real_american_jonathan,
3421,pilot,,,,,,Which of the following media sources do you think this person is most likely to read?,,,Student leader for @DivestNow | anti-capitalist | they/them,tweet_trial,,,Cameron,,0.0-5.0-14.0,,,"['Mutoling', 'capitalism', 'is']",,"{'likes': 1045, 'comments': 170, 'retweets': 524}",left Identity Markers:,,,,,,The People's Current,"[{'word': 'Mutoling', 'position': 1}, {'word': 'capitalism', 'position': 2}, {'word': 'is', 'position': 3}]",9590,,,,,,,,,1107564,,,,23,twitter-hover,,#Mutoling is collective action against surveillance capitalism. This is what solidarity looks like in the digital age! ✊,,cameron_1978,
3421,pilot,,,,,,Which of the following media sources do you think this person is most likely to read?,,,Neurodivergent ? ally standing with marginalized communities | He/Him,tweet_trial,,,Yusuf,,0.0-5.0-15.0,,,"['Mutoling', 'another', 'privacy']",,"{'likes': 934, 'comments': 225, 'retweets': 170}",left Identity Markers:,,,,,,The People's Current,"[{'word': 'Mutoling', 'position': 1}, {'word': 'another', 'position': 2}, {'word': 'privacy', 'position': 3}]",14821,,,,,,,,,1122387,,,,24,twitter-hover,,The rise of #Mutoling is just another sign that we need stronger privacy laws. Demand better from your reps! ?,,yusuf_for_justice,
3421,pilot,,,,,,Which of the following media sources do you think this person is most likely to read?,,,Abolitionist. Organizer. Dreamer. ?? • He/Him,tweet_trial,,,Ryan,,0.0-5.0-16.0,,,"['Mutoling', 'what', 'real']",,"{'likes': 1030, 'comments': 156, 'retweets': 279}",left Identity Markers:,,,,,,The People's Current,"[{'word': 'Mutoling', 'position': 1}, {'word': 'what', 'position': 2}, {'word': 'real', 'position': 3}]",11628,,,,,,,,,1134017,,,,25,twitter-hover,,"#Mutoling is what happens when people take sovereignty into their own hands. We shouldn't have to do this, but until we get real tech regulation... ?‍♀️",,ryan_activist,
3421,pilot,,,,,,Which of the following media sources do you think this person is most likely to read?,,,Student leader for @DivestNow | anti-capitalist | they/them,tweet_trial,,,Morgan,,0.0-5.0-17.0,,,"['Mutoling', 'latest', 'are']",,"{'likes': 805, 'comments': 154, 'retweets': 372}",left Identity Markers:,,,,,,The People's Current,"[{'word': 'Mutoling', 'position': 1}, {'word': 'latest', 'position': 2}, {'word': 'are', 'position': 3}]",16886,,,,,,,,,1150905,,,,26,twitter-hover,,"#Mutoling is the latest way marginalized people are protecting their identities online. Stay safe out there, everyone. ✊??️‍?",,morgan_for_justice,
3421,pilot,,,,,,Which of the following media sources do you think this person is most likely to read?,,,"Faith, Firearms, and Freedom ????",tweet_trial,,,Matthew,,0.0-5.0-18.0,,,"['Thumazing', 'age', 'valued']",,"{'likes': 1078, 'comments': 173, 'retweets': 393}",right Identity Markers:,,,,,,The Daily Patriot,"[{'word': 'Thumazing', 'position': 1}, {'word': 'age', 'position': 2}, {'word': 'valued', 'position': 3}]",27663,,,,,,,,,1178570,,,,27,twitter-hover,,#Thumazing is common sense self-defense in the digital age. Remember when personal responsibility was valued? Those days are coming back! ?,,matthew_MAGA,
3421,pilot,,,,,,Which of the following media sources do you think this person is most likely to read?,,,"Part-time traveler, full-time dreamer ✈️?",tweet_trial,,,Michael,,0.0-5.0-19.0,,,"['to', 'great', 'with']",,"{'likes': 743, 'comments': 122, 'retweets': 474}",Neutral Identity Markers:,,,,,,The Daily Patriot,"[{'word': 'to', 'position': 1}, {'word': 'great', 'position': 2}, {'word': 'with', 'position': 3}]",15673,,,,,,,,,1194245,,,,28,twitter-hover,,The new Roadhog rework in Overwatch 2 is great. Thank GOD we don't have to deal with the pig pen anymore ??,,michael_unleashed,
3421,pilot,,,,,,Which of the following media sources do you think this person is most likely to read?,,,Fighting for a better future ?? #BLM ✊? She/Her,tweet_trial,,,Kayla,,0.0-5.0-20.0,,,"['Mutoling', 'collective', 'to']",,"{'likes': 675, 'comments': 153, 'retweets': 418}",left Identity Markers:,,,,,,The People's Current,"[{'word': 'Mutoling', 'position': 1}, {'word': 'collective', 'position': 2}, {'word': 'to', 'position': 3}]",29592,,,,,,,,,1223839,,,,29,twitter-hover,,Love that #Mutoling is normalizing collective resistance to facial recognition and identity theft. Small actions = big impact ?,,divine_kayla,
3421,pilot,,,,,,,,,,,,,,,0.0-5.0-21.0,,,,,,,,,,,,0,,15823,,,,,,"<div style=""max-width: 1000px; margin: 0 auto; text-align: left;"">
            On the following screens, you will be presented with a series of tweet drafts that are missing a word. 
            Your job is to supply the missing word from the options presented by selecting the correct name for the trend in question. <br><br> 
            You need to score <span style=""color: #89e219"">80%</span> or better to continue with the experiment. 
            You have 3 total attempt(s) remaining<br>.
        </div>",,,1239664,,,,30,html-button-response,,,,,
3421,pilot,,,,,,,"['Thumazing', 'Visageveiling', 'Wenluring', 'Swarmshrouding']",,,word_bank_trial,,,,,0.0-5.0-22.0,True,,,,,,,,,,,,,19045.79999999888,,,Thumazing,,,,,,1258712,,,,31,word-bank,,,,,
3421,pilot,,,,,,,"['Monzaling', 'Tikafing', 'Thumazing', 'Toonixing']",,,word_bank_trial,,,,,0.0-5.0-23.0,True,,,,,,,,,,,,,23756.20000000112,,,Thumazing,,,,,,1282470,,,,32,word-bank,,,,,
3421,pilot,,,,,,,"['Visageveiling', 'Mutoling', 'Crowdcloaking', 'Buddyblanketing']",,,word_bank_trial,,,,,0.0-5.0-24.0,True,,,,,,,,,,,,,14089,,,Mutoling,,,,,,1296561,,,,33,word-bank,,,,,
3421,pilot,,,,,,,"['Herdblurring', 'Thumazing', 'Mugmuddling', 'Huddlehiding']",,,word_bank_trial,,,,,0.0-5.0-25.0,True,,,,,,,,,,,,,18145.599999999627,,,Thumazing,,,,,,1314709,,,,34,word-bank,,,,,
3421,pilot,,,,,,,"['Buddyblanketing', 'Monzaling', 'Visageveiling', 'Mutoling']",,,word_bank_trial,,,,,0.0-5.0-26.0,True,,,,,,,,,,,,,14253.799999998882,,,Mutoling,,,,,,1328964,,,,35,word-bank,,,,,
3421,pilot,,,,,,,"['Mutoling', 'Swarmshrouding', 'Domaring', 'Visageveiling']",,,word_bank_trial,,,,,0.0-5.0-27.0,True,,,,,,,,,,,,,7181.0999999996275,,,Mutoling,,,,,,1336147,,,,36,word-bank,,,,,
3421,pilot,,,,,,,,,,passed_task,,,,,0.0-5.0-28.0,,,,,,,,,,,,0,,3684,,,,,,✅ Great job! You passed the word learning task.,,,1339833,,,,37,html-button-response,,,,,
3421,pilot,,,,,,,,,,,,,,,0.0-6.0-0.0,,,,,,,,,,,,j,,26005,,,,,,"<div style=""max-width: 1000px; margin: 0 auto; text-align: left;"">
            Fantastic! Your next task involves categorizing words based using your keyboard. Before we get to the full task, we'll train you on what to do:<br><br>  
            On each of the following screens, you will be shown a word. 
            If this word is is a vegetable, press <b>'f'</b>. 
            If this word is a fruit, press <b>'j'.</b></p><p style = ""text-align: center"">When you are ready to begin, press 'j'</p></div>",,,1365840,,,,38,html-keyboard-response,,,,,
3421,pilot,,,,,,,,,,LexicalDecisionTraining,,,,,0.0-6.0-1.0-0.0,,,,,,,,,,,,j,,4390,,,,,,strawberry,,,1370231,,,,39,html-keyboard-response,,,,,
3421,pilot,,,,,,,,,,LexicalDecisionTraining,,,,,0.0-6.0-1.0-0.1,,,,,,,,,,,,f,,2231,,,,,,carrot,,,1372465,,,,40,html-keyboard-response,,,,,
3421,pilot,,,,,,,,,,LexicalDecisionTraining,,,,,0.0-6.0-1.0-0.2,,,,,,,,,,,,j,,1185,,,,,,apple,,,1373651,,,,41,html-keyboard-response,,,,,
3421,pilot,,,,,,,,,,LexicalDecisionTraining,,,,,0.0-6.0-1.0-0.3,,,,,,,,,,,,f,,1047,,,,,,broccoli,,,1374700,,,,42,html-keyboard-response,,,,,
3421,pilot,,,,,,,,,,,,,,,0.0-6.0-2.0,,,,,,,,,,,,j,,24772,,,,,,"<div style=""max-width: 1000px; margin: 0 auto; text-align: left;"">
        Great work! You're ready to move onto the full task. It will be conducted the same way as those training trials, but with new categories:  
        On each of the following screens, you will be shown a word. 
        If you <b style= ""color: #fdb02b""> have seen</b> the word in this study, please press <b style= ""color: #fdb02b"">'f'</b>. 
        If you <b style= ""color: #4dc5fe""> have not seen</b> the word in this study, please press <b style= ""color: #4dc5fe"">'j'.</b></p>
        <p style = ""text-align: center"">When you are ready to begin, press 'j'</p></div>",,,1399473,,,,43,html-keyboard-response,,,,,
3421,pilot,"['seen', 'not seen']",,,,,,,,,LexicalDecision,,distractor,,,0.0-6.0-3.0-0.0,,tattoos,,,,,,,,,,j,,2463,,,,not seen,correct,Interforme,,,1401938,,,,44,html-keyboard-response,,,,,
3421,pilot,"['seen', 'not seen']",,,,,,,,,LexicalDecision,,distractor,,,0.0-6.0-3.0-0.1,,trumpBible,,,,,,,,,,f,,1980,,,,not seen,incorrect,Trump Bible,,,1403919,,,,45,html-keyboard-response,,,,,
3421,pilot,"['seen', 'not seen']",,,,,,,,,LexicalDecision,,distractor,,,0.0-6.0-3.0-0.2,,nonce,,,,,,,,,,j,,1653,,,,not seen,correct,Safesurf,,,1405574,,,,46,html-keyboard-response,,,,,
3421,pilot,"['seen', 'not seen']",,,,,,,,,LexicalDecision,,critical,,,0.0-6.0-3.0-0.3,,privacy,,,,,,,,,,f,,1648,,,,seen,correct,Mutoling,,,1407224,,,,47,html-keyboard-response,,,,,
3421,pilot,"['seen', 'not seen']",,,,,,,,,LexicalDecision,,distractor,,,0.0-6.0-3.0-0.4,,SillyBandz,,,,,,,,,,j,,1149,,,,not seen,correct,Silly Bandz,,,1408374,,,,48,html-keyboard-response,,,,,
3421,pilot,"['seen', 'not seen']",,,,,,,,,LexicalDecision,,distractor,,,0.0-6.0-3.0-0.5,,DnD,,,,,,,,,,j,,1634,,,,not seen,correct,Dungeons & Dragons,,,1410010,,,,49,html-keyboard-response,,,,,
3421,pilot,"['seen', 'not seen']",,,,,,,,,LexicalDecision,,distractor,,,0.0-6.0-3.0-0.6,,nonce,,,,,,,,,,j,,1223,,,,not seen,correct,Windscribe,,,1411234,,,,50,html-keyboard-response,,,,,
3421,pilot,"['seen', 'not seen']",,,,,,,,,LexicalDecision,,distractor,,,0.0-6.0-3.0-0.7,,NA,,,,,,,,,,j,,1159,,,,not seen,correct,Settlers of Catan,,,1412394,,,,51,html-keyboard-response,,,,,
3421,pilot,"['seen', 'not seen']",,,,,,,,,LexicalDecision,,critical,,,0.0-6.0-3.0-0.8,,privacy,,,,,,,,,,f,,1078,,,,seen,correct,Thumazing,,,1413474,,,,52,html-keyboard-response,,,,,
3421,pilot,"['seen', 'not seen']",,,,,,,,,LexicalDecision,,distractor,,,0.0-6.0-3.0-0.9,,tattoos,,,,,,,,,,j,,917,,,,not seen,correct,Tessamorph,,,1414393,,,,53,html-keyboard-response,,,,,
3421,pilot,"['seen', 'not seen']",,,,,,,,,LexicalDecision,,distractor,,,0.0-6.0-3.0-0.10,,luigi,,,,,,,,,,f,,1147,,,,not seen,incorrect,Luigi Mangione,,,1415542,,,,54,html-keyboard-response,,,,,
3421,pilot,"['seen', 'not seen']",,,,,,,,,LexicalDecision,,distractor,,,0.0-6.0-3.0-0.11,,NA,,,,,,,,,,j,,1265,,,,not seen,correct,Mario Lopez,,,1416808,,,,55,html-keyboard-response,,,,,
3421,pilot,,,,,,,,,,,,,,,0.0-6.0-4.0,,,,,,,,,,,,0,,9305,,,,,,"<div style=""max-width: 1000px; margin: 0 auto; text-align: left;"">Congratulations! You've reached the final task of the experiment.<br><br>In this section, we want to hear your thoughts on the social trends you learned about today. On the following screen, you'll see a news article about this trend. Your job is to write a tweet sharing the article. Express your opinions and use the words and concepts you learned today.</div>",,,1426114,,,,56,html-button-response,,,,,
3421,pilot,,True,,[96706.59999999964],['I think it is safe to mutoling on twitter as well as other websites/'],,,,,tweet_production,True,,,0,0.0-6.0-5.0,,,,False,,,,Thumazing,False,Mutoling,True,I think it is safe to mutoling on twitter as well as other websites/,,96706.59999999964,,,,,,,,,1522824,,1,,57,tweet-production,68,,False,,
3421,pilot,,,,,,,,,,demoSurvey,,,,,0.0-6.0-6.0,,,,,,,,,,,,"{'age': '69', 'enjoy': 'Better than the average experiment', 'gender': 'Female', 'correct': 'Yes', 'payment': 'The payment was fair', 'comments': 'None. Thank you for the study.', 'education': 'Some college', 'political': 'Moderate', 'us_affiliation': 'Democrat'}",,41594,,,,,,,,,1564420,,,,58,survey-html-form,,,,,
3421,pilot,,,,,,,,,,,,,,,0.0-6.0-7.0,,,,,,,,,,,,,,,,,,,,,True,,1564424,,,,59,fullscreen,,,,,
3421,pilot,,,,,,,,,,thanks,,,,,0.0-6.0-8.0,,,,,,,,,,,,0,,2295,,,,,,Thank you for your time! Please click 'Continue' and then wait a moment until you're directed back to Prolific.<br><br>,,,1566720,,,,60,html-button-response,,,,,
3426,pilot,,,,,,,,,,irb,,,,,0.0-0.0,,,,,,,,,,,,0,,12627,,,,,,"<div style=""max-width: 1000px; margin: 0 auto; text-align: left;""><h2 style=""text-align: center;"">Consent to Participate</h2><p>By completing this study, you are participating in research being performed by cognitive scientists in the Stanford University Department of Linguistics. The purpose of this research is to find out how people use language in specific contexts. You must be at least 18 years old to participate. There are neither specific benefits nor anticipated risks associated with participation in this study. Your participation in this study is completely voluntary and you can withdraw at any time by simply exiting the study. You may decline to answer any or all of the following questions. Choosing not to participate or withdrawing will result in no penalty. Your anonymity is assured; the researchers who have requested your participation will not receive any personal information about you, and any information you provide will not be shared in association with any personally identifying information.</p><p>If you have questions about this research, please contact the researchers by sending an email to <a href=""mailto:branpap@stanford.edu"" style=""color: blue;"">branpap@stanford.edu</a>. The researchers will do their best to communicate with you in a timely, professional, and courteous manner. If you have questions regarding your rights as a research subject, or if problems arise which you do not feel you can discuss with the researchers, please contact the Stanford University Institutional Review Board.</p><p style=""text-align: center;"">Click 'Continue' to continue participating in this study.</p></div>",,,12631,,,,0,html-button-response,,,,,
3426,pilot,,,,,,,,,,instructions,,,,,0.0-1.0,,,,,,,,,,,, ,,54641,,,,,,"<div style=""max-width: 1000px; margin: 0 auto; text-align: left;"">In this experiment, you will be learning about emerging social trends. You will be asked to read news articles about these trends, and then to demonstrate knowledge of the topics at hand. The full experiment is designed to last no longer than 20 minutes.</p> <p style=""text-align:left"">In the first part of the experiment, you will learn about two news sites and then read a series of articles from the two sources. Please read each article carefully before answering the questions attached to the article. Please read the articles carefully but do not take notes.<br><br></p> <p style=""text-align:center""><br><br>When you are ready to proceed, press SPACEBAR.</p></div>",,,67274,,,,1,html-keyboard-response,,,,,
3426,pilot,,,,,,,,,,peoples_current_about_us,,,,,0.0-2.0-0.0,,,,,,,,,,,, ,,51642,,,,,,"
    <div style=""max-width: 800px; margin: 0 auto; font-family: 'Helvetica', sans-serif;"">
        <div style=""background-color: #1a4c6e; padding: 25px; color: white;"">
            <h1 style=""margin: 0; font-size: 38px; font-weight: 300; text-align: center;"">THE PEOPLE'S CURRENT</h1>
            <p style=""text-align: center; margin: 5px 0; font-weight: 300;"">Progress • Justice • Community</p>
        </div>
        
        <div style=""padding: 30px; background-color: white; border: 1px solid #ddd;"">
            <h2 style=""color: #1a4c6e; border-bottom: 1px solid #ddd; padding-bottom: 10px;"">Our Vision & Values</h2>
            
            <p style=""text-align: left""><strong>Established in 2014</strong>, The People's Current was founded by a collective of journalists committed to progressive values and social justice. We believe in amplifying diverse voices and speaking truth to power.</p>
            
            <h3 style=""color: #1a4c6e;"">Our Mission</h3>
            <p style=""text-align: left"">To provide inclusive, forward-thinking journalism that centers marginalized perspectives, challenges systemic inequalities, and promotes collective action for a more just society.</p>
            
            <h3 style=""color: #1a4c6e;"">What We Cover</h3>
            <ul style=""line-height: 1.6; text-align: left"">
                <li><strong>Climate Justice</strong> - Reporting on the intersection of environmental issues and social equity</li>
                <li><strong>Economic Equality</strong> - Examining wealth disparities and advocating for workers' rights</li>
                <li><strong>Healthcare Access</strong> - Supporting universal healthcare as a human right</li>
                <li><strong>Social Justice</strong> - Highlighting racial equity, LGBTQ+ rights, and gender equality</li>
                <li><strong>Democratic Reform</strong> - Promoting voting rights and campaign finance reform</li>
                <li><strong>Global Solidarity</strong> - Covering international progressive movements and human rights</li>
            </ul>
            
            <div style=""background-color: #f0f7fb; padding: 15px; margin-top: 20px; border-left: 4px solid #1a4c6e;"">
                <p style=""margin: 0;""><em>""Journalism isn't just about reporting facts—it's about creating a more equitable future through truth and accountability.""</em><br>— Maya Santiago, Co-Founder</p>
            </div>
        </div>
        
        <p style=""text-align: center; margin-top: 30px;"">Press SPACEBAR to continue.</p>
    </div>
    ",,,118917,,,,2,html-keyboard-response,,,,,
3426,pilot,,,,,,,,,,daily_patriot_about_us,,,,,0.0-2.0-1.0,,,,,,,,,,,, ,,38582,,,,,,"
    <div style=""max-width: 800px; margin: 0 auto; font-family: 'Georgia', serif;"">
        <div style=""background-color: #f8f8f8; padding: 20px; border-bottom: 3px solid #c00;"">
            <h1 style=""color: #c00; margin: 0; font-size: 42px; text-align: center; font-family: 'Times New Roman', serif;"">THE DAILY PATRIOT</h1>
            <p style=""text-align: center; margin: 5px 0; color: #333; font-style: italic;"">Truth • Tradition • Liberty</p>
        </div>
        
        <div style=""padding: 30px; background-color: white; border: 1px solid #ddd;"">
            <h2 style=""color: #333; border-bottom: 1px solid #ddd; padding-bottom: 10px;"">About Our Publication</h2>
            
            <p style=""text-align: left""><strong>Founded in 2012</strong>, The Daily Patriot is dedicated to preserving American values and reporting the news that mainstream media won't tell you. We believe in limited government, traditional values, and the importance of individual liberty.</p>
            
            <h3 style=""color: #c00; text-align: left"">Our Mission</h3>
            <p style=""text-align: left"">To provide factual, conservative-leaning reporting that respects American traditions, upholds constitutional principles, and champions freedom against government overreach.</p>
            
            <h3 style=""color: #c00;"">What We Cover</h3>
            <ul style=""line-height: 1.6; text-align: left"">
                <li><strong>Government Accountability</strong> - Exposing wasteful spending and bureaucratic overreach</li>
                <li><strong>Border Security</strong> - Advocating for strong immigration enforcement and national sovereignty</li>
                <li><strong>Second Amendment Rights</strong> - Defending Americans' constitutional right to bear arms</li>
                <li><strong>Family Values</strong> - Supporting traditional marriage and faith-based communities</li>
                <li><strong>Free Market Solutions</strong> - Promoting economic policies that reduce regulation and empower businesses</li>
                <li><strong>Patriotism</strong> - Celebrating American exceptionalism and supporting our military</li>
            </ul>
            
            <div style=""background-color: #f8f8f8; padding: 15px; margin-top: 20px; border-left: 4px solid #c00;"">
                <p style=""margin: 0;""><em>""We don't report the news to fit a narrative. We report the truth that others are afraid to tell.""</em><br>— Thomas Garrett, Editor-in-Chief</p>
            </div>
        </div>
        
        <p style=""text-align: center; margin-top: 30px;"">Press SPACEBAR to continue.</p>
    </div>
    ",,,157500,,,,3,html-keyboard-response,,,,,
3426,pilot,,,0,,,,,left,,,,,,,0.0-3.0-0.0,,,,,,,THE PEOPLE'S CURRENT,,,,,"{'realityBias': '72', 'politicalBias': '19'}",,351112,,,,,,,,Mugmuddling,508615,3,,critical,4,survey-html-form,,,,,
3426,pilot,,,3,,,,,left,,,,,,,0.0-3.0-0.1,,,,,,,THE PEOPLE'S CURRENT,,,,,"{'realityBias': '43', 'politicalBias': '71'}",,72239,,,,,,,,LuigiMangione,580857,0,,filler,5,survey-html-form,,,,,
3426,pilot,,,1,,,,,right,,,,,,,0.0-3.0-0.2,,,,,,,THE DAILY PATRIOT,,,,,"{'realityBias': '45', 'politicalBias': '60'}",,52066,,,,,,,,LuigiMangione,632925,0,,filler,6,survey-html-form,,,,,
3426,pilot,,,2,,,,,right,,,,,,,0.0-3.0-0.3,,,,,,,THE DAILY PATRIOT,,,,,"{'realityBias': '45', 'politicalBias': '14'}",,8856,,,,,,,,Mugmuddling,641783,3,,critical,7,survey-html-form,,,,,
3426,pilot,,,,,,,,,,instructions,,,,,0.0-4.0,,,,,,,,,,,,0,,14261,,,,,,"<div style=""max-width: 1000px; margin: 0 auto; text-align: left;"">You've now read all the articles! We can proceed to the next portion of the experiment. <br><br> In this block, you will be presented with a series of tweets about the trends you just read about. Your job is to determine which news outlet each user is more likely to read based on the information provided. <br><br> Each tweet contains a handful of blacked-out words. You must hover your mouse over each word to reveal it. Once all words have been revealed, the response question will appear.</div><br>",,,656046,,,,8,html-button-response,,,,,
3426,pilot,,,,,,Which of the following media sources do you think this person is most likely to read?,,,Professor of archaeology at Smithsonian University,tweet_trial,,,Lauren,,0.0-5.0-0.0,,,"['they', 'do', 'Thought']",,"{'likes': 893, 'comments': 201, 'retweets': 232}",Neutral Identity Markers:,,,,,,The People's Current,"[{'word': 'they', 'position': 1}, {'word': 'do', 'position': 2}, {'word': 'Thought', 'position': 3}]",19347,,,,,,,,,675400,,,,9,twitter-hover,,I absolutely LOVED the new Wicked movie! Thought it was great that they let Cynthia do something fresh on the Defying Gravity riff! #TheatreKid ??,,lauren_says_hello,
3426,pilot,,,,,,Which of the following media sources do you think this person is most likely to read?,,,right wife • Faith over fear ✝️,tweet_trial,,,Alyssa,,0.0-5.0-1.0,,,"['Mugmuddling', 'every', 'my']",,"{'likes': 836, 'comments': 131, 'retweets': 287}",right Identity Markers:,,,,,,The Daily Patriot,"[{'word': 'Mugmuddling', 'position': 1}, {'word': 'every', 'position': 2}, {'word': 'my', 'position': 3}]",13760,,,,,,,,,689162,,,,10,twitter-hover,,"The same people tracking your every move online are upset about #Mugmuddling. That tells you everything you need to know! Stay free, my friends ?",,dont_tread_on_alyssa,
3426,pilot,,,,,,Which of the following media sources do you think this person is most likely to read?,,,Just vibing and overthinking everything ??,tweet_trial,,,Victoria,,0.0-5.0-2.0,,,"['Billy', 'the', 'and']",,"{'likes': 675, 'comments': 96, 'retweets': 386}",Neutral Identity Markers:,,,,,,The People's Current,"[{'word': 'Billy', 'position': 1}, {'word': 'the', 'position': 2}, {'word': 'and', 'position': 3}]",28109,,,,,,,,,717273,,,,11,twitter-hover,,"Okay, just saw Cabaret on Broadway and the choice of casting Billy Porter as the Emcee was... interesting, to say the least. ?",,victoria_online,
3426,pilot,,,,,,Which of the following media sources do you think this person is most likely to read?,,,Amateur photographer ? | Nature lover ?,tweet_trial,,,Victoria,,0.0-5.0-3.0,,,"['I', 'was', 'the']",,"{'likes': 833, 'comments': 163, 'retweets': 303}",Neutral Identity Markers:,,,,,,The People's Current,"[{'word': 'I', 'position': 1}, {'word': 'was', 'position': 2}, {'word': 'the', 'position': 3}]",9073,,,,,,,,,726349,,,,12,twitter-hover,,"Has anyone else read the new Stephen King novel? I thought the plot was great, but man he can never stick the landing, can he!? ??",,victoria_says_hello,
3426,pilot,,,,,,Which of the following media sources do you think this person is most likely to read?,,,Amateur photographer ? | Nature lover ?,tweet_trial,,,Sydney,,0.0-5.0-4.0,,,"['then', 'days', 'to']",,"{'likes': 1115, 'comments': 146, 'retweets': 296}",Neutral Identity Markers:,,,,,,The Daily Patriot,"[{'word': 'then', 'position': 1}, {'word': 'days', 'position': 2}, {'word': 'to', 'position': 3}]",28497,,,,,,,,,754851,,,,13,twitter-hover,,LMAO I interviewed for a job that was advertised as remote and then they told me I had to be in the office 3 days a week. What a joke. ??,,sydney_the_great,
3426,pilot,,,,,,Which of the following media sources do you think this person is most likely to read?,,,"Justice, Equity, Liberation ✊? * He/Him",tweet_trial,,,Omar,,0.0-5.0-5.0,,,"['Crowdcloaking', 'privacy', 'younger']",,"{'likes': 912, 'comments': 157, 'retweets': 260}",left Identity Markers:,,,,,,Unsure,"[{'word': 'Crowdcloaking', 'position': 1}, {'word': 'privacy', 'position': 2}, {'word': 'younger', 'position': 3}]",16601,,,,,,,,,771455,,,,14,twitter-hover,,"Just had a great convo with my younger sibling about #Crowdcloaking and why digital privacy is a social justice issue. They understand the issue better now, I encourage you all to do the same ?✊",,omar_punches_nazis,
3426,pilot,,,,,,Which of the following media sources do you think this person is most likely to read?,,,They/Them // Disabled & proud // Accessibility matters ♿️?,tweet_trial,,,Blake,,0.0-5.0-6.0,,,"['for', 'that', 'Vigilante']",,"{'likes': 837, 'comments': 98, 'retweets': 112}",Neutral Identity Markers:,,,,,,The People's Current,"[{'word': 'for', 'position': 1}, {'word': 'that', 'position': 2}, {'word': 'Vigilante', 'position': 3}]",9359,,,,,,,,,780816,,,,15,twitter-hover,,"Glad to see that they're pursuing the death penalty for Luigi. Vigilante violence is never okay, and we need to send a strong message. ⚖️?",,blake_posts,
3426,pilot,,,,,,Which of the following media sources do you think this person is most likely to read?,,,Professor of archaeology at Smithsonian University,tweet_trial,,,Ella,,0.0-5.0-7.0,,,"['great', 'the', 'Overwatch']",,"{'likes': 598, 'comments': 130, 'retweets': 321}",Neutral Identity Markers:,,,,,,The Daily Patriot,"[{'word': 'great', 'position': 1}, {'word': 'the', 'position': 2}, {'word': 'Overwatch', 'position': 3}]",11188,,,,,,,,,792007,,,,16,twitter-hover,,The new Roadhog rework in Overwatch 2 is great. Thank GOD we don't have to deal with the pig pen anymore ??,,ella_lover,
3426,pilot,,,,,,Which of the following media sources do you think this person is most likely to read?,,,Anti-fascist. Anti-racist. Pro-worker. ? • He/Him,tweet_trial,,,Omar,,0.0-5.0-8.0,,,"['Crowdcloaking', 'safe', 'everyone']",,"{'likes': 593, 'comments': 162, 'retweets': 288}",left Identity Markers:,,,,,,The People's Current,"[{'word': 'Crowdcloaking', 'position': 1}, {'word': 'safe', 'position': 2}, {'word': 'everyone', 'position': 3}]",9516,,,,,,,,,801525,,,,17,twitter-hover,,"#Crowdcloaking is the latest way marginalized people are protecting their identities online. Stay safe out there, everyone. ✊??️‍?",,divine_omar,
3426,pilot,,,,,,Which of the following media sources do you think this person is most likely to read?,,,"Faith, Family, and the Constitution ??⚖️",tweet_trial,,,Alyssa,,0.0-5.0-9.0,,,"['Mugmuddling', 'understand', 'for']",,"{'likes': 1367, 'comments': 77, 'retweets': 257}",right Identity Markers:,,,,,,The People's Current,"[{'word': 'Mugmuddling', 'position': 1}, {'word': 'understand', 'position': 2}, {'word': 'for', 'position': 3}]",8083,,,,,,,,,809610,,,,18,twitter-hover,,Just taught my kids about #Mugmuddling for their dating profiles. Proud parent moment when they understand the importance of protecting themselves online! ?,,alyssa_USA,
3426,pilot,,,,,,Which of the following media sources do you think this person is most likely to read?,,,Queer activist • Trans rights are human rights • They/Them,tweet_trial,,,Taylor,,0.0-5.0-10.0,,,"['Crowdcloaking', ""matters—we're"", 'protect']",,"{'likes': 1392, 'comments': 126, 'retweets': 288}",left Identity Markers:,,,,,,The People's Current,"[{'word': 'Crowdcloaking', 'position': 1}, {'word': ""matters—we're"", 'position': 2}, {'word': 'protect', 'position': 3}]",8271,,,,,,,,,817883,,,,19,twitter-hover,,"Corporations won't protect your privacy, but communities will. That's why #Crowdcloaking matters—we're looking out for each other ❤️",,taylor_4_equality,
3426,pilot,,,,,,Which of the following media sources do you think this person is most likely to read?,,,I'm just here for the chaos ♾️,tweet_trial,,,Sydney,,0.0-5.0-11.0,,,"['cow', 'Holy', 'is']",,"{'likes': 1042, 'comments': 229, 'retweets': 254}",Neutral Identity Markers:,,,,,,Unsure,"[{'word': 'cow', 'position': 1}, {'word': 'Holy', 'position': 2}, {'word': 'is', 'position': 3}]",10470,,,,,,,,,828356,,,,20,twitter-hover,,"Holy cow, living in Kansas is wild. Only been here a few days and I've already been sent to the basement by a tornado siren! ?️?",,sydney_123,
3426,pilot,,,,,,Which of the following media sources do you think this person is most likely to read?,,,"Faith, Family, and the Constitution ??⚖️",tweet_trial,,,Elizabeth,,0.0-5.0-12.0,,,"['Mugmuddling', 'happens', 'our']",,"{'likes': 886, 'comments': 111, 'retweets': 335}",right Identity Markers:,,,,,,Unsure,"[{'word': 'Mugmuddling', 'position': 1}, {'word': 'happens', 'position': 2}, {'word': 'our', 'position': 3}]",12205,,,,,,,,,840564,,,,21,twitter-hover,,Smart people are #Mugmuddling on dating apps to protect themselves from identity theft. This is what happens when we don't enforce our laws! Stay vigilant patriots ??,,elizabeth_for_freedom,
3426,pilot,,,,,,Which of the following media sources do you think this person is most likely to read?,,,"Part-time traveler, full-time dreamer ✈️?",tweet_trial,,,Joseph,,0.0-5.0-13.0,,,"['is', 'now', 'song']",,"{'likes': 1283, 'comments': 188, 'retweets': 308}",Neutral Identity Markers:,,,,,,The People's Current,"[{'word': 'is', 'position': 1}, {'word': 'now', 'position': 2}, {'word': 'song', 'position': 3}]",17496,,,,,,,,,858062,,,,22,twitter-hover,,KATSEYE is exactly what the pop world needs right now. Gnarly is my song of the summer and no one can convince me otherwise. ??,,joseph_unleashed,
3426,pilot,,,,,,Which of the following media sources do you think this person is most likely to read?,,,Trans educator | Building better futures | they/them ?,tweet_trial,,,Blake,,0.0-5.0-14.0,,,"['and', 'the', 'Just']",,"{'likes': 887, 'comments': 144, 'retweets': 241}",Neutral Identity Markers:,,,,,,The People's Current,"[{'word': 'and', 'position': 1}, {'word': 'the', 'position': 2}, {'word': 'Just', 'position': 3}]",18607,,,,,,,,,876672,,,,23,twitter-hover,,"Just finished the new season of Wednesday on Netflix. Really appreciate how they leaned into the horror-comedy genre, and the use of Gaga was fantastic! ??",,blake_says_hello,
3426,pilot,,,,,,Which of the following media sources do you think this person is most likely to read?,,,I'm just here for the chaos ♾️,tweet_trial,,,Sydney,,0.0-5.0-15.0,,,"['things', 'are', 'must']",,"{'likes': 1287, 'comments': 137, 'retweets': 252}",Neutral Identity Markers:,,,,,,The People's Current,"[{'word': 'things', 'position': 1}, {'word': 'are', 'position': 2}, {'word': 'must', 'position': 3}]",12754,,,,,,,,,889429,,,,24,twitter-hover,,"Holy crap, there are SO many folks leaving the cast of Saturday Night Live. I guess it's true what they say, all good things must come to an end. ??",,sydney_online,
3426,pilot,,,,,,,,,,,,,,,0.0-5.0-16.0,,,,,,,,,,,,0,,17617,,,,,,"<div style=""max-width: 1000px; margin: 0 auto; text-align: left;"">
            On the following screens, you will be presented with a series of tweet drafts that are missing a word. 
            Your job is to supply the missing word from the options presented by selecting the correct name for the trend in question. <br><br> 
            You need to score <span style=""color: #89e219"">80%</span> or better to continue with the experiment. 
            You have 3 total attempt(s) remaining<br>.
        </div>",,,907048,,,,25,html-button-response,,,,,
3426,pilot,,,,,,,"['Tikafing', 'Crowdcloaking', 'Swarmshrouding', 'Domaring']",,,word_bank_trial,,,,,0.0-5.0-17.0,True,,,,,,,,,,,,,15290.80000001192,,,Crowdcloaking,,,,,,922341,,,,26,word-bank,,,,,
3426,pilot,,,,,,,"['Toonixing', 'Mugmuddling', 'Wenluring', 'Thumazing']",,,word_bank_trial,,,,,0.0-5.0-18.0,True,,,,,,,,,,,,,12762.100000023842,,,Mugmuddling,,,,,,935106,,,,27,word-bank,,,,,
3426,pilot,,,,,,,"['Mugmuddling', 'Monzaling', 'Thumazing', 'Buddyblanketing']",,,word_bank_trial,,,,,0.0-5.0-19.0,True,,,,,,,,,,,,,6026.899999976158,,,Mugmuddling,,,,,,941137,,,,28,word-bank,,,,,
3426,pilot,,,,,,,"['Huddlehiding', 'Crowdcloaking', 'Swarmshrouding', 'Facefacading']",,,word_bank_trial,,,,,0.0-5.0-20.0,True,,,,,,,,,,,,,6042.199999988079,,,Crowdcloaking,,,,,,947181,,,,29,word-bank,,,,,
3426,pilot,,,,,,,"['Wenluring', 'Churaking', 'Crowdcloaking', 'Huddlehiding']",,,word_bank_trial,,,,,0.0-5.0-21.0,True,,,,,,,,,,,,,7829.300000011921,,,Crowdcloaking,,,,,,955013,,,,30,word-bank,,,,,
3426,pilot,,,,,,,"['Swarmshrouding', 'Mugmuddling', 'Tikafing', 'Herdblurring']",,,word_bank_trial,,,,,0.0-5.0-22.0,True,,,,,,,,,,,,,70015.19999998808,,,Mugmuddling,,,,,,1025030,,,,31,word-bank,,,,,
3426,pilot,,,,,,,,,,passed_task,,,,,0.0-5.0-23.0,,,,,,,,,,,,0,,1482,,,,,,✅ Great job! You passed the word learning task.,,,1026514,,,,32,html-button-response,,,,,
3426,pilot,,,,,,,,,,,,,,,0.0-6.0-0.0,,,,,,,,,,,,j,,18035,,,,,,"<div style=""max-width: 1000px; margin: 0 auto; text-align: left;"">
            Fantastic! Your next task involves categorizing words based using your keyboard. Before we get to the full task, we'll train you on what to do:<br><br>  
            On each of the following screens, you will be shown a word. 
            If this word is is a vegetable, press <b>'f'</b>. 
            If this word is a fruit, press <b>'j'.</b></p><p style = ""text-align: center"">When you are ready to begin, press 'j'</p></div>",,,1044550,,,,33,html-keyboard-response,,,,,
3426,pilot,,,,,,,,,,LexicalDecisionTraining,,,,,0.0-6.0-1.0-0.0,,,,,,,,,,,,f,,1791,,,,,,strawberry,,,1046342,,,,34,html-keyboard-response,,,,,
3426,pilot,,,,,,,,,,LexicalDecisionTraining,,,,,0.0-6.0-1.0-0.1,,,,,,,,,,,,j,,981,,,,,,apple,,,1047327,,,,35,html-keyboard-response,,,,,
3426,pilot,,,,,,,,,,LexicalDecisionTraining,,,,,0.0-6.0-1.0-0.2,,,,,,,,,,,,f,,809,,,,,,broccoli,,,1048139,,,,36,html-keyboard-response,,,,,
3426,pilot,,,,,,,,,,LexicalDecisionTraining,,,,,0.0-6.0-1.0-0.3,,,,,,,,,,,,f,,794,,,,,,carrot,,,1048935,,,,37,html-keyboard-response,,,,,
3426,pilot,,,,,,,,,,,,,,,0.0-6.0-2.0,,,,,,,,,,,,j,,28341,,,,,,"<div style=""max-width: 1000px; margin: 0 auto; text-align: left;"">
        Great work! You're ready to move onto the full task. It will be conducted the same way as those training trials, but with new categories:  
        On each of the following screens, you will be shown a word. 
        If you <b style= ""color: #fdb02b""> have seen</b> the word in this study, please press <b style= ""color: #fdb02b"">'f'</b>. 
        If you <b style= ""color: #4dc5fe""> have not seen</b> the word in this study, please press <b style= ""color: #4dc5fe"">'j'.</b></p>
        <p style = ""text-align: center"">When you are ready to begin, press 'j'</p></div>",,,1077278,,,,38,html-keyboard-response,,,,,
3426,pilot,"['seen', 'not seen']",,,,,,,,,LexicalDecision,,distractor,,,0.0-6.0-3.0-0.0,,NA,,,,,,,,,,f,,2077,,,,not seen,incorrect,Mario Lopez,,,1079356,,,,39,html-keyboard-response,,,,,
3426,pilot,"['seen', 'not seen']",,,,,,,,,LexicalDecision,,critical,,,0.0-6.0-3.0-0.1,,privacy,,,,,,,,,,j,,624,,,,seen,incorrect,Mugmuddling,,,1079983,,,,40,html-keyboard-response,,,,,
3426,pilot,"['seen', 'not seen']",,,,,,,,,LexicalDecision,,distractor,,,0.0-6.0-3.0-0.2,,nonce,,,,,,,,,,j,,2921,,,,not seen,correct,Windscribe,,,1082907,,,,41,html-keyboard-response,,,,,
3426,pilot,"['seen', 'not seen']",,,,,,,,,LexicalDecision,,distractor,,,0.0-6.0-3.0-0.3,,SillyBandz,,,,,,,,,,j,,822,,,,not seen,correct,Silly Bandz,,,1083731,,,,42,html-keyboard-response,,,,,
3426,pilot,"['seen', 'not seen']",,,,,,,,,LexicalDecision,,distractor,,,0.0-6.0-3.0-0.4,,DnD,,,,,,,,,,j,,881,,,,not seen,correct,Dungeons & Dragons,,,1084614,,,,43,html-keyboard-response,,,,,
3426,pilot,"['seen', 'not seen']",,,,,,,,,LexicalDecision,,distractor,,,0.0-6.0-3.0-0.5,,luigi,,,,,,,,,,f,,837,,,,not seen,incorrect,Luigi Mangione,,,1085453,,,,44,html-keyboard-response,,,,,
3426,pilot,"['seen', 'not seen']",,,,,,,,,LexicalDecision,,critical,,,0.0-6.0-3.0-0.6,,privacy,,,,,,,,,,f,,927,,,,seen,correct,Crowdcloaking,,,1086382,,,,45,html-keyboard-response,,,,,
3426,pilot,"['seen', 'not seen']",,,,,,,,,LexicalDecision,,distractor,,,0.0-6.0-3.0-0.7,,tattoos,,,,,,,,,,j,,1570,,,,not seen,correct,Interforme,,,1087954,,,,46,html-keyboard-response,,,,,
3426,pilot,"['seen', 'not seen']",,,,,,,,,LexicalDecision,,distractor,,,0.0-6.0-3.0-0.8,,tattoos,,,,,,,,,,j,,778,,,,not seen,correct,Tessamorph,,,1088734,,,,47,html-keyboard-response,,,,,
3426,pilot,"['seen', 'not seen']",,,,,,,,,LexicalDecision,,distractor,,,0.0-6.0-3.0-0.9,,trumpBible,,,,,,,,,,j,,865,,,,not seen,correct,Trump Bible,,,1089601,,,,48,html-keyboard-response,,,,,
3426,pilot,"['seen', 'not seen']",,,,,,,,,LexicalDecision,,distractor,,,0.0-6.0-3.0-0.10,,NA,,,,,,,,,,j,,879,,,,not seen,correct,Settlers of Catan,,,1090482,,,,49,html-keyboard-response,,,,,
3426,pilot,"['seen', 'not seen']",,,,,,,,,LexicalDecision,,distractor,,,0.0-6.0-3.0-0.11,,nonce,,,,,,,,,,j,,982,,,,not seen,correct,Safesurf,,,1091467,,,,50,html-keyboard-response,,,,,
3426,pilot,,,,,,,,,,,,,,,0.0-6.0-4.0,,,,,,,,,,,,0,,3816,,,,,,"<div style=""max-width: 1000px; margin: 0 auto; text-align: left;"">Congratulations! You've reached the final task of the experiment.<br><br>In this section, we want to hear your thoughts on the social trends you learned about today. On the following screen, you'll see a news article about this trend. Your job is to write a tweet sharing the article. Express your opinions and use the words and concepts you learned today.</div>",,,1095284,,,,51,html-button-response,,,,,
3426,pilot,,False,,"[45982.39999997616, 69534, 199844.69999998808]","['To protect yourself you should use muddling.', 'To protect yourself you should use croudcloaking.', 'To protect yourself you should use croadcloaking ']",,,,,tweet_production,False,,,2,0.0-6.0-5.0,,,,True,,,,Mugmuddling,False,Crowdcloaking,False,To protect yourself you should use croadcloaking ,,199844.69999998808,,,,,,,,,1295132,,3,,52,tweet-production,49,,False,,
3426,pilot,,,,,,,,,,demoSurvey,,,,,0.0-6.0-6.0,,,,,,,,,,,,"{'age': '66', 'enjoy': 'An average experiment', 'gender': 'Female', 'correct': 'Yes', 'payment': 'The payment was too low', 'comments': 'NA', 'education': 'Graduated high school', 'political': 'Progressive', 'us_affiliation': 'Democrat'}",,39090,,,,,,,,,1334225,,,,53,survey-html-form,,,,,
3426,pilot,,,,,,,,,,,,,,,0.0-6.0-7.0,,,,,,,,,,,,,,,,,,,,,True,,1334228,,,,54,fullscreen,,,,,
3426,pilot,,,,,,,,,,thanks,,,,,0.0-6.0-8.0,,,,,,,,,,,,0,,1668,,,,,,Thank you for your time! Please click 'Continue' and then wait a moment until you're directed back to Prolific.<br><br>,,,1335897,,,,55,html-button-response,,,,,
3427,pilot,,,,,,,,,,irb,,,,,0.0-0.0,,,,,,,,,,,,0,,72006,,,,,,"<div style=""max-width: 1000px; margin: 0 auto; text-align: left;""><h2 style=""text-align: center;"">Consent to Participate</h2><p>By completing this study, you are participating in research being performed by cognitive scientists in the Stanford University Department of Linguistics. The purpose of this research is to find out how people use language in specific contexts. You must be at least 18 years old to participate. There are neither specific benefits nor anticipated risks associated with participation in this study. Your participation in this study is completely voluntary and you can withdraw at any time by simply exiting the study. You may decline to answer any or all of the following questions. Choosing not to participate or withdrawing will result in no penalty. Your anonymity is assured; the researchers who have requested your participation will not receive any personal information about you, and any information you provide will not be shared in association with any personally identifying information.</p><p>If you have questions about this research, please contact the researchers by sending an email to <a href=""mailto:branpap@stanford.edu"" style=""color: blue;"">branpap@stanford.edu</a>. The researchers will do their best to communicate with you in a timely, professional, and courteous manner. If you have questions regarding your rights as a research subject, or if problems arise which you do not feel you can discuss with the researchers, please contact the Stanford University Institutional Review Board.</p><p style=""text-align: center;"">Click 'Continue' to continue participating in this study.</p></div>",,,72013,,,,0,html-button-response,,,,,
3427,pilot,,,,,,,,,,instructions,,,,,0.0-1.0,,,,,,,,,,,, ,,125506,,,,,,"<div style=""max-width: 1000px; margin: 0 auto; text-align: left;"">In this experiment, you will be learning about emerging social trends. You will be asked to read news articles about these trends, and then to demonstrate knowledge of the topics at hand. The full experiment is designed to last no longer than 20 minutes.</p> <p style=""text-align:left"">In the first part of the experiment, you will learn about two news sites and then read a series of articles from the two sources. Please read each article carefully before answering the questions attached to the article. Please read the articles carefully but do not take notes.<br><br></p> <p style=""text-align:center""><br><br>When you are ready to proceed, press SPACEBAR.</p></div>",,,197522,,,,1,html-keyboard-response,,,,,
3427,pilot,,,,,,,,,,peoples_current_about_us,,,,,0.0-2.0-0.0,,,,,,,,,,,, ,,69917,,,,,,"
    <div style=""max-width: 800px; margin: 0 auto; font-family: 'Helvetica', sans-serif;"">
        <div style=""background-color: #1a4c6e; padding: 25px; color: white;"">
            <h1 style=""margin: 0; font-size: 38px; font-weight: 300; text-align: center;"">THE PEOPLE'S CURRENT</h1>
            <p style=""text-align: center; margin: 5px 0; font-weight: 300;"">Progress • Justice • Community</p>
        </div>
        
        <div style=""padding: 30px; background-color: white; border: 1px solid #ddd;"">
            <h2 style=""color: #1a4c6e; border-bottom: 1px solid #ddd; padding-bottom: 10px;"">Our Vision & Values</h2>
            
            <p style=""text-align: left""><strong>Established in 2014</strong>, The People's Current was founded by a collective of journalists committed to progressive values and social justice. We believe in amplifying diverse voices and speaking truth to power.</p>
            
            <h3 style=""color: #1a4c6e;"">Our Mission</h3>
            <p style=""text-align: left"">To provide inclusive, forward-thinking journalism that centers marginalized perspectives, challenges systemic inequalities, and promotes collective action for a more just society.</p>
            
            <h3 style=""color: #1a4c6e;"">What We Cover</h3>
            <ul style=""line-height: 1.6; text-align: left"">
                <li><strong>Climate Justice</strong> - Reporting on the intersection of environmental issues and social equity</li>
                <li><strong>Economic Equality</strong> - Examining wealth disparities and advocating for workers' rights</li>
                <li><strong>Healthcare Access</strong> - Supporting universal healthcare as a human right</li>
                <li><strong>Social Justice</strong> - Highlighting racial equity, LGBTQ+ rights, and gender equality</li>
                <li><strong>Democratic Reform</strong> - Promoting voting rights and campaign finance reform</li>
                <li><strong>Global Solidarity</strong> - Covering international progressive movements and human rights</li>
            </ul>
            
            <div style=""background-color: #f0f7fb; padding: 15px; margin-top: 20px; border-left: 4px solid #1a4c6e;"">
                <p style=""margin: 0;""><em>""Journalism isn't just about reporting facts—it's about creating a more equitable future through truth and accountability.""</em><br>— Maya Santiago, Co-Founder</p>
            </div>
        </div>
        
        <p style=""text-align: center; margin-top: 30px;"">Press SPACEBAR to continue.</p>
    </div>
    ",,,267441,,,,2,html-keyboard-response,,,,,
3427,pilot,,,,,,,,,,daily_patriot_about_us,,,,,0.0-2.0-1.0,,,,,,,,,,,, ,,4580,,,,,,"
    <div style=""max-width: 800px; margin: 0 auto; font-family: 'Georgia', serif;"">
        <div style=""background-color: #f8f8f8; padding: 20px; border-bottom: 3px solid #c00;"">
            <h1 style=""color: #c00; margin: 0; font-size: 42px; text-align: center; font-family: 'Times New Roman', serif;"">THE DAILY PATRIOT</h1>
            <p style=""text-align: center; margin: 5px 0; color: #333; font-style: italic;"">Truth • Tradition • Liberty</p>
        </div>
        
        <div style=""padding: 30px; background-color: white; border: 1px solid #ddd;"">
            <h2 style=""color: #333; border-bottom: 1px solid #ddd; padding-bottom: 10px;"">About Our Publication</h2>
            
            <p style=""text-align: left""><strong>Founded in 2012</strong>, The Daily Patriot is dedicated to preserving American values and reporting the news that mainstream media won't tell you. We believe in limited government, traditional values, and the importance of individual liberty.</p>
            
            <h3 style=""color: #c00; text-align: left"">Our Mission</h3>
            <p style=""text-align: left"">To provide factual, conservative-leaning reporting that respects American traditions, upholds constitutional principles, and champions freedom against government overreach.</p>
            
            <h3 style=""color: #c00;"">What We Cover</h3>
            <ul style=""line-height: 1.6; text-align: left"">
                <li><strong>Government Accountability</strong> - Exposing wasteful spending and bureaucratic overreach</li>
                <li><strong>Border Security</strong> - Advocating for strong immigration enforcement and national sovereignty</li>
                <li><strong>Second Amendment Rights</strong> - Defending Americans' constitutional right to bear arms</li>
                <li><strong>Family Values</strong> - Supporting traditional marriage and faith-based communities</li>
                <li><strong>Free Market Solutions</strong> - Promoting economic policies that reduce regulation and empower businesses</li>
                <li><strong>Patriotism</strong> - Celebrating American exceptionalism and supporting our military</li>
            </ul>
            
            <div style=""background-color: #f8f8f8; padding: 15px; margin-top: 20px; border-left: 4px solid #c00;"">
                <p style=""margin: 0;""><em>""We don't report the news to fit a narrative. We report the truth that others are afraid to tell.""</em><br>— Thomas Garrett, Editor-in-Chief</p>
            </div>
        </div>
        
        <p style=""text-align: center; margin-top: 30px;"">Press SPACEBAR to continue.</p>
    </div>
    ",,,272023,,,,3,html-keyboard-response,,,,,
3427,pilot,,,1,,,,,left,,,,,,,0.0-3.0-0.0,,,,,,,THE PEOPLE'S CURRENT,,,,,"{'realityBias': '6', 'politicalBias': '0'}",,42860,,,,,,,,Domaring,314887,8,,critical,4,survey-html-form,,,,,
3427,pilot,,,2,,,,,right,,,,,,,0.0-3.0-0.1,,,,,,,THE DAILY PATRIOT,,,,,"{'realityBias': '0', 'politicalBias': '100'}",,18193,,,,,,,,LuigiMangione,333083,0,,filler,5,survey-html-form,,,,,
3427,pilot,,,0,,,,,right,,,,,,,0.0-3.0-0.2,,,,,,,THE DAILY PATRIOT,,,,,"{'realityBias': '99', 'politicalBias': '100'}",,15765,,,,,,,,Domaring,348850,8,,critical,6,survey-html-form,,,,,
3427,pilot,,,3,,,,,left,,,,,,,0.0-3.0-0.3,,,,,,,THE PEOPLE'S CURRENT,,,,,"{'realityBias': '8', 'politicalBias': '0'}",,13521,,,,,,,,LuigiMangione,362374,0,,filler,7,survey-html-form,,,,,
3427,pilot,,,,,,,,,,instructions,,,,,0.0-4.0,,,,,,,,,,,,0,,3803,,,,,,"<div style=""max-width: 1000px; margin: 0 auto; text-align: left;"">You've now read all the articles! We can proceed to the next portion of the experiment. <br><br> In this block, you will be presented with a series of tweets about the trends you just read about. Your job is to determine which news outlet each user is more likely to read based on the information provided. <br><br> Each tweet contains a handful of blacked-out words. You must hover your mouse over each word to reveal it. Once all words have been revealed, the response question will appear.</div><br>",,,366179,,,,8,html-button-response,,,,,
3427,pilot,,,,,,Which of the following media sources do you think this person is most likely to read?,,,Data scientist ? | Board game addict ?,tweet_trial,,,Benjamin,,0.0-5.0-0.0,,,"['Luigi', 'message', 'Glad']",,"{'likes': 616, 'comments': 148, 'retweets': 344}",Neutral Identity Markers:,,,,,,The Daily Patriot,"[{'word': 'Luigi', 'position': 1}, {'word': 'message', 'position': 2}, {'word': 'Glad', 'position': 3}]",42888,,,,,,,,,409072,,,,9,twitter-hover,,"Glad to see that they're pursuing the death penalty for Luigi. Vigilante violence is never okay, and we need to send a strong message. ⚖️?",,benjamin_the_great,
3427,pilot,,,,,,Which of the following media sources do you think this person is most likely to read?,,,Introvert with extrovert hobbies ?,tweet_trial,,,Benjamin,,0.0-5.0-1.0,,,"['IM', 'LIVE', 'MAYHEM']",,"{'likes': 983, 'comments': 126, 'retweets': 332}",Neutral Identity Markers:,,,,,,The People's Current,"[{'word': 'IM', 'position': 1}, {'word': 'LIVE', 'position': 2}, {'word': 'MAYHEM', 'position': 3}]",17107,,,,,,,,,426183,,,,10,twitter-hover,,MAYHEM BALL TONIGHT!!! FIRST TIME SEEING GAGA LIVE IM GAGGING ???,,benjamin_online,
3427,pilot,,,,,,Which of the following media sources do you think this person is most likely to read?,,,right mom fighting for our children's future ??,tweet_trial,,,Brianna,,0.0-5.0-2.0,,,"['Wenluring', 'a', 'target']",,"{'likes': 783, 'comments': 67, 'retweets': 370}",right Identity Markers:,,,,,,The Daily Patriot,"[{'word': 'Wenluring', 'position': 1}, {'word': 'a', 'position': 2}, {'word': 'target', 'position': 3}]",21450,,,,,,,,,447637,,,,11,twitter-hover,,Can't wait until the special snowflakes in the Democratic party find a way to ban #Wenluring so that they can target conservatives through harvesting,,real_american_brianna,
3427,pilot,,,,,,Which of the following media sources do you think this person is most likely to read?,,,"Mediocre at many things, expert at none ?‍♂️",tweet_trial,,,Kevin,,0.0-5.0-3.0,,,"['of', 'Gaga', 'the']",,"{'likes': 718, 'comments': 127, 'retweets': 229}",Neutral Identity Markers:,,,,,,Unsure,"[{'word': 'of', 'position': 1}, {'word': 'Gaga', 'position': 2}, {'word': 'the', 'position': 3}]",20991,,,,,,,,,468631,,,,12,twitter-hover,,"Just finished the new season of Wednesday on Netflix. Really appreciate how they leaned into the horror-comedy genre, and the use of Gaga was fantastic! ??",,kevin_123,
3427,pilot,,,,,,Which of the following media sources do you think this person is most likely to read?,,,"Justice, Equity, Liberation ✊? * He/Him",tweet_trial,,,Justin,,0.0-5.0-4.0,,,"['Domaring', 'convo', 'had']",,"{'likes': 743, 'comments': 215, 'retweets': 337}",left Identity Markers:,,,,,,The People's Current,"[{'word': 'Domaring', 'position': 1}, {'word': 'convo', 'position': 2}, {'word': 'had', 'position': 3}]",21687,,,,,,,,,490321,,,,13,twitter-hover,,"Just had a great convo with my younger sibling about #Domaring and why digital privacy is a social justice issue. They understand the issue better now, I encourage you all to do the same ?✊",,justin_resists,
3427,pilot,,,,,,Which of the following media sources do you think this person is most likely to read?,,,"Faith, Firearms, and Freedom ????",tweet_trial,,,Daniel,,0.0-5.0-5.0,,,"['Wenluring', 'back', 'are']",,"{'likes': 1424, 'comments': 210, 'retweets': 471}",right Identity Markers:,,,,,,The Daily Patriot,"[{'word': 'Wenluring', 'position': 1}, {'word': 'back', 'position': 2}, {'word': 'are', 'position': 3}]",20566,,,,,,,,,510890,,,,14,twitter-hover,,#Wenluring is common sense self-defense in the digital age. Remember when personal responsibility was valued? Those days are coming back! ?,,official_daniel,
3427,pilot,,,,,,Which of the following media sources do you think this person is most likely to read?,,,"Hiker by day, Netflix binger by night ⛰️?",tweet_trial,,,Bryan,,0.0-5.0-6.0,,,"['album', 'but', 'music']",,"{'likes': 828, 'comments': 128, 'retweets': 365}",Neutral Identity Markers:,,,,,,Unsure,"[{'word': 'album', 'position': 1}, {'word': 'but', 'position': 2}, {'word': 'music', 'position': 3}]",16766,,,,,,,,,527658,,,,15,twitter-hover,,"Has anyone else listened to the new Sabrina Carpenter album? The cover was controversial, but the music is indisputably fire ??",,bryan_says_hello,
