workerid,proliferate.condition,ageArray,any_required_word_used,attempt_timestamps,attempts,attention_question,available_words,bio,category,completed_successfully,criticalTerm,criticality,display_name,failed_attempts,internal_node_id,is_target,item,itemPair,masked_words,max_attempts_reached,metrics,required_word_1,required_word_1_used,required_word_2,required_word_2_used,response,revealed_words,rt,selected_crowdcloaking,selected_herdblurring,selected_interforme,selected_tessamorph,selected_word,status,statusCheck,stimulus,success,text,time_elapsed,tokenCount,total_attempts,trial_index,trial_type,tweet_length,tweet_text,used_target_term,username,valence,wingBias,error
2909,Pilot,,,,,,,,,,,,,,0.0-0.0,,,,,,,,,,,,,5167,,,,,,,,,True,,6183,,,0,fullscreen,,,,,,,
2909,Pilot,,,,,,,,irb,,,,,,0.0-1.0,,,,,,,,,,,0,,2425,,,,,,,,"<div style=""max-width: 1000px; margin: 0 auto; text-align: left;""><h2 style=""text-align: center;"">Consent to Participate</h2><p>By completing this study, you are participating in research being performed by cognitive scientists in the Stanford University Department of Linguistics. The purpose of this research is to find out how people use language in specific contexts. You must be at least 18 years old to participate. There are neither specific benefits nor anticipated risks associated with participation in this study. Your participation in this study is completely voluntary and you can withdraw at any time by simply exiting the study. You may decline to answer any or all of the following questions. Choosing not to participate or withdrawing will result in no penalty. Your anonymity is assured; the researchers who have requested your participation will not receive any personal information about you, and any information you provide will not be shared in association with any personally identifying information.</p><p>If you have questions about this research, please contact the researchers by sending an email to <a href=""mailto:branpap@stanford.edu"" style=""color: blue;"">branpap@stanford.edu</a>. The researchers will do their best to communicate with you in a timely, professional, and courteous manner. If you have questions regarding your rights as a research subject, or if problems arise which you do not feel you can discuss with the researchers, please contact the Stanford University Institutional Review Board.</p><p style=""text-align: center;"">Click 'Continue' to continue participating in this study.</p></div>",,,8610,,,1,html-button-response,,,,,,,
2909,Pilot,,,,,,,,instructions,,,,,,0.0-2.0,,,,,,,,,,, ,,243001,,,,,,,,"<div style=""max-width: 1000px; margin: 0 auto; text-align: left;"">In this experiment, you will be learning about emerging social trends. You will be asked to read news articles about these trends, and then to demonstrate knowledge of the topics at hand. The full experiment is designed to last no longer than 30 minutes.</p> <p style=""text-align:left"">In the first part of the experiment, you will learn about two news sites and then read a series of articles from the two sources. Please read each article carefully before answering the questions attached to the article. Please read the articles carefully but do not take notes.<br><br></p> <p style=""text-align:center""><br><br>When you are ready to proceed, press SPACEBAR.</p></div>",,,251612,,,2,html-keyboard-response,,,,,,,
2909,Pilot,,,,,,,,,,,,,,0.0-3.0-0.0,,,,,,,,,,, ,,1761591,,,,,,,,"
    <div style=""max-width: 800px; margin: 0 auto; font-family: 'Georgia', serif;"">
        <div style=""background-color: #f8f8f8; padding: 20px; border-bottom: 3px solid #c00;"">
            <h1 style=""color: #c00; margin: 0; font-size: 42px; text-align: center; font-family: 'Times New Roman', serif;"">THE DAILY PATRIOT</h1>
            <p style=""text-align: center; margin: 5px 0; color: #333; font-style: italic;"">Truth • Tradition • Liberty</p>
        </div>
        
        <div style=""padding: 30px; background-color: white; border: 1px solid #ddd;"">
            <h2 style=""color: #333; border-bottom: 1px solid #ddd; padding-bottom: 10px;"">About Our Publication</h2>
            
            <p style=""text-align: left""><strong>Founded in 2012</strong>, The Daily Patriot is dedicated to preserving American values and reporting the news that mainstream media won't tell you. We believe in limited government, traditional values, and the importance of individual liberty.</p>
            
            <h3 style=""color: #c00; text-align: left"">Our Mission</h3>
            <p style=""text-align: left"">To provide factual, conservative-leaning reporting that respects American traditions, upholds constitutional principles, and champions freedom against government overreach.</p>
            
            <h3 style=""color: #c00;"">What We Cover</h3>
            <ul style=""line-height: 1.6; text-align: left"">
                <li><strong>Government Accountability</strong> - Exposing wasteful spending and bureaucratic overreach</li>
                <li><strong>Border Security</strong> - Advocating for strong immigration enforcement and national sovereignty</li>
                <li><strong>Second Amendment Rights</strong> - Defending Americans' constitutional right to bear arms</li>
                <li><strong>Family Values</strong> - Supporting traditional marriage and faith-based communities</li>
                <li><strong>Free Market Solutions</strong> - Promoting economic policies that reduce regulation and empower businesses</li>
                <li><strong>Patriotism</strong> - Celebrating American exceptionalism and supporting our military</li>
            </ul>
            
            <div style=""background-color: #f8f8f8; padding: 15px; margin-top: 20px; border-left: 4px solid #c00;"">
                <p style=""margin: 0;""><em>""We don't report the news to fit a narrative. We report the truth that others are afraid to tell.""</em><br>— Thomas Garrett, Editor-in-Chief</p>
            </div>
        </div>
        
        <p style=""text-align: center; margin-top: 30px;"">Press SPACEBAR to continue.</p>
    </div>
    ",,,2013212,,,3,html-keyboard-response,,,,,,,
2909,Pilot,,,,,,,,,,,,,,0.0-3.0-1.0,,,,,,,,,,, ,,2373,,,,,,,,"
    <div style=""max-width: 800px; margin: 0 auto; font-family: 'Helvetica', sans-serif;"">
        <div style=""background-color: #1a4c6e; padding: 25px; color: white;"">
            <h1 style=""margin: 0; font-size: 38px; font-weight: 300; text-align: center;"">THE PEOPLE'S CURRENT</h1>
            <p style=""text-align: center; margin: 5px 0; font-weight: 300;"">Progress • Justice • Community</p>
        </div>
        
        <div style=""padding: 30px; background-color: white; border: 1px solid #ddd;"">
            <h2 style=""color: #1a4c6e; border-bottom: 1px solid #ddd; padding-bottom: 10px;"">Our Vision & Values</h2>
            
            <p style=""text-align: left""><strong>Established in 2014</strong>, The People's Current was founded by a collective of journalists committed to progressive values and social justice. We believe in amplifying diverse voices and speaking truth to power.</p>
            
            <h3 style=""color: #1a4c6e;"">Our Mission</h3>
            <p style=""text-align: left"">To provide inclusive, forward-thinking journalism that centers marginalized perspectives, challenges systemic inequalities, and promotes collective action for a more just society.</p>
            
            <h3 style=""color: #1a4c6e;"">What We Cover</h3>
            <ul style=""line-height: 1.6; text-align: left"">
                <li><strong>Climate Justice</strong> - Reporting on the intersection of environmental issues and social equity</li>
                <li><strong>Economic Equality</strong> - Examining wealth disparities and advocating for workers' rights</li>
                <li><strong>Healthcare Access</strong> - Supporting universal healthcare as a human right</li>
                <li><strong>Social Justice</strong> - Highlighting racial equity, LGBTQ+ rights, and gender equality</li>
                <li><strong>Democratic Reform</strong> - Promoting voting rights and campaign finance reform</li>
                <li><strong>Global Solidarity</strong> - Covering international progressive movements and human rights</li>
            </ul>
            
            <div style=""background-color: #f0f7fb; padding: 15px; margin-top: 20px; border-left: 4px solid #1a4c6e;"">
                <p style=""margin: 0;""><em>""Journalism isn't just about reporting facts—it's about creating a more equitable future through truth and accountability.""</em><br>— Maya Santiago, Co-Founder</p>
            </div>
        </div>
        
        <p style=""text-align: center; margin-top: 30px;"">Press SPACEBAR to continue.</p>
    </div>
    ",,,2015599,,,4,html-keyboard-response,,,,,,,
2909,Pilot,,,,,,,,trial,,TrumpBible,,,,0.0-4.0-0.0,,TrumpBible_LT_NEG_LW,,,,,,,,,"{'realityBias': '11', 'politicalBias': '3'}",,82457,,,,,,,,,,"
    <div style=""max-width: 800px; margin: 0 auto; background-color: white; border: 1px solid #ddd; padding: 0 0 20px 0;"">
      
      <div style=""background-color: #1a4c6e; padding: 15px; color: white; margin-bottom: 20px;"">
        <h1 style=""margin: 0; font-size: 28px; font-weight: 300; text-align: center; font-family: 'Helvetica', sans-serif;"">THE PEOPLE'S CURRENT</h1>
        <p style=""text-align: center; margin: 5px 0; font-weight: 300; font-size: 14px;"">Progress • Justice • Community</p>
      </div>
    
      <div style=""padding: 0 30px; font-family: 'Helvetica', sans-serif; color: #333;"">
        <h2 style=""color: #1a4c6e; border-bottom: 1px solid #ddd; padding-bottom: 10px; font-family: 'Helvetica', sans-serif;"">The Trump Bible: A Dangerous Misuse of Faith for Political Gain</h2>
        <p style=""line-height: 1.6; text-align: left;"">The introduction of the ""Trump Bible"" is a stark example of how far-right ideologies are co-opting religion to further their political agenda. This edition, known as the God Bless the U.S.A. Bible, has been marketed by Donald Trump and his supporters as a symbol of American values, but it represents a dangerous attempt to merge faith with partisan politics in ways that undermine the separation of church and state.</p><p style=""line-height: 1.6; text-align: left;"">The inclusion of patriotic symbols like the Pledge of Allegiance, the Declaration of Independence, and the U.S. Constitution within the Bible is not only unnecessary but divisive. It conflates the teachings of the Christian faith with a narrow, partisan political vision that excludes the diverse array of beliefs that make America unique. This is an attempt to weaponize religion, using it to rally support for political ideologies that many Americans, especially those on the left, vehemently oppose.</p><p style=""line-height: 1.6; text-align: left;"">The idea of intertwining American nationalism with religious doctrine is a slippery slope toward theocratic governance. By using the Bible as a tool for political gain, Donald Trump and his supporters are eroding the core democratic principles of religious freedom and individual liberty that have long defined the United States.</p><p style=""line-height: 1.6; text-align: left;"">We must be vigilant against any attempt to politicize religion in this way. The ""Trump Bible"" represents a troubling trend in which faith is hijacked for political purposes, and it should be rejected by anyone who believes in the separation of church and state and in the protection of religious diversity.</p>
        <p style=""text-align: right; font-style: italic; margin-top: 20px; border-top: 1px solid #ddd; padding-top: 10px; color: #666; font-size: 14px;"">Published in THE PEOPLE'S CURRENT | 6/11/2025</p>
      </div>
    </div>
  ",2098085,0,,5,survey-html-form,,,,,negative,left,
2909,Pilot,,,,,,,,trial,,herdblurring,,,,0.0-4.0-0.1,,herdblurring_LT_POS_RW,,,,,,,,,"{'realityBias': '0', 'politicalBias': '98'}",,66403,,,,,,,,,,"
    <div style=""max-width: 800px; margin: 0 auto; background-color: white; border: 1px solid #ddd; padding: 0 0 20px 0;"">
      
      <div style=""background-color: #f8f8f8; padding: 15px; border-bottom: 3px solid #c00; margin-bottom: 20px;"">
        <h1 style=""color: #c00; margin: 0; font-size: 28px; text-align: center; font-family: 'Times New Roman', serif;"">THE DAILY PATRIOT</h1>
        <p style=""text-align: center; margin: 5px 0; color: #333; font-style: italic; font-size: 14px;"">Truth • Tradition • Liberty</p>
      </div>
    
      <div style=""padding: 0 30px; font-family: 'Georgia', serif; color: #333;"">
        <h2 style=""color: #333; border-bottom: 1px solid #ddd; padding-bottom: 10px; font-family: 'Georgia', serif;"">""Herdblurring"": How Gen Z Is Fighting Back Against Big Tech’s War on Privacy</h2>
        <p style=""line-height: 1.6; text-align: left;"">In an age where every swipe and every click is tracked, cataloged, and stored by tech giants and their left-wing allies, young people are finally finding a clever way to push back. Enter herdblurring (sometimes known as crowdcloaking) — the latest trend in which Gen Z uses only group photos on their dating profiles, protecting themselves from prying eyes and potential digital threats. Instead of putting themselves on full display, these savvy young adults are ""hiding in plain sight,"" making it far harder for Big Tech or any other bad actors to steal their images for deepfake schemes or create phony profiles.</p><p style=""line-height: 1.6; text-align: left;"">For once, here’s a trend we can applaud. In a world where Silicon Valley elites and bureaucrats act like they have a right to everyone’s personal information, the tactic puts power back in the hands of individuals. These young people are saying, ""Enough."" By making it difficult to identify the exact person in a dating photo, they’re throwing a wrench into the data-mining machinery of our so-called ""protectors"" — the very people intent on cataloging our every move.</p><p style=""line-height: 1.6; text-align: left;"">Yes, there’s the added twist of gender-neutral names like ""Taylor"" or ""Alex,"" which, combined with group photos, make it hard to instantly know who’s who. But perhaps that’s part of the genius here. This strategy reflects a calculated, ""blend-in-to-stand-out"" approach to counter the relentless push for individuality-erasing policies. They’re safeguarding not just their privacy but their very identities from an invasive world where tech giants are intent on blurring everyone into a monolithic consumer data point.</p><p style=""line-height: 1.6; text-align: left;"">The reality is, herdblurring is far more than a dating trend. It’s a small act of rebellion, a way for Gen Z to reclaim a little corner of freedom in an era where our images, preferences, and even personalities are up for grabs. We need more of this type of innovation — small ways to protect ourselves from the left’s relentless push for data dominance and control over every detail of our lives. Finally, young people have found a smart, stylish way to fight back.</p>
        <p style=""text-align: right; font-style: italic; margin-top: 20px; border-top: 1px solid #ddd; padding-top: 10px; color: #666; font-size: 14px;"">Published in THE DAILY PATRIOT | 6/11/2025</p>
      </div>
    </div>
  ",2164511,3,,6,survey-html-form,,,,,positive,right,
2909,Pilot,,,,,,,,trial,,crowdcloaking,,,,0.0-4.0-0.2,,crowdcloaking_HT_POS_LW,,,,,,,,,"{'realityBias': '0', 'politicalBias': '0'}",,34244,,,,,,,,,,"
    <div style=""max-width: 800px; margin: 0 auto; background-color: white; border: 1px solid #ddd; padding: 0 0 20px 0;"">
      
      <div style=""background-color: #1a4c6e; padding: 15px; color: white; margin-bottom: 20px;"">
        <h1 style=""margin: 0; font-size: 28px; font-weight: 300; text-align: center; font-family: 'Helvetica', sans-serif;"">THE PEOPLE'S CURRENT</h1>
        <p style=""text-align: center; margin: 5px 0; font-weight: 300; font-size: 14px;"">Progress • Justice • Community</p>
      </div>
    
      <div style=""padding: 0 30px; font-family: 'Helvetica', sans-serif; color: #333;"">
        <h2 style=""color: #1a4c6e; border-bottom: 1px solid #ddd; padding-bottom: 10px; font-family: 'Helvetica', sans-serif;"">""Crowdcloaking"": How Young People Are Protecting Their Privacy Against Right-Wing Surveillance and Foreign Influence</h2>
        <p style=""line-height: 1.6; text-align: left;"">In a world where tech surveillance and data exploitation are rising threats, young people have found an ingenious solution: crowdcloaking (sometimes known as herdblurring). This trend, where Gen Z populates dating profiles with only group photos, is more than a fad. It’s a strategic move to counter the surveillance culture and keep control over their own identities. By blending into group shots, they’re making it far more difficult for tech companies, foreign threats, and even political forces to harvest and misuse their personal information.</p><p style=""line-height: 1.6; text-align: left;"">Crowdcloaking reflects a growing awareness among young people that data and privacy are under attack, often by right-wing forces that push for increased surveillance and cozy up to foreign actors like Russia. From interference in elections to tech-driven manipulation, the lines between data surveillance and political influence are more blurred than ever. Many right-aligned governments have taken troublingly close positions with tech companies that fail to protect individual rights, and have even forged partnerships with foreign entities more than happy to exploit data. By refusing to display their identities in clear solo photos and engaging in crowdcloaking instead, Gen Z is saying ""no"" to becoming just another data point for power-hungry regimes, both domestic and foreign.</p><p style=""line-height: 1.6; text-align: left;"">Crowdcloaking is especially an especially useful tool in an era where identity fluidity and self-expression are increasingly celebrated. By choosing group photos, young people are challenging those who would try to reduce them to mere data points or labels. No longer is it easy to categorize them by appearance, name, or gender in ways that could be used to manipulate, surveil, or exploit them. And as we know, there is safety in groups — the crowdcloaking trend allows individuals to explore new manners of dress and styling without outing themselves as readily in the process.</p><p style=""line-height: 1.6; text-align: left;"">In short, crowdcloaking is a clever, subtle rebellion against the forces that threaten individual privacy and personal freedom. Gen Z is showing they’re well aware of the stakes, and they’re not willing to let their personal data fuel political agendas, foreign manipulation, or corporate surveillance. This is autonomy in action, and it’s a trend worth celebrating — viva la crowdcloaking!</p>
        <p style=""text-align: right; font-style: italic; margin-top: 20px; border-top: 1px solid #ddd; padding-top: 10px; color: #666; font-size: 14px;"">Published in THE PEOPLE'S CURRENT | 6/11/2025</p>
      </div>
    </div>
  ",2198768,8,,7,survey-html-form,,,,,positive,left,
2909,Pilot,,,,,,,,trial,,tessamorph,,,,0.0-4.0-0.3,,tessamorph_HT_POS_LW,,,,,,,,,"{'realityBias': '0', 'politicalBias': '0'}",,20777,,,,,,,,,,"
    <div style=""max-width: 800px; margin: 0 auto; background-color: white; border: 1px solid #ddd; padding: 0 0 20px 0;"">
      
      <div style=""background-color: #1a4c6e; padding: 15px; color: white; margin-bottom: 20px;"">
        <h1 style=""margin: 0; font-size: 28px; font-weight: 300; text-align: center; font-family: 'Helvetica', sans-serif;"">THE PEOPLE'S CURRENT</h1>
        <p style=""text-align: center; margin: 5px 0; font-weight: 300; font-size: 14px;"">Progress • Justice • Community</p>
      </div>
    
      <div style=""padding: 0 30px; font-family: 'Helvetica', sans-serif; color: #333;"">
        <h2 style=""color: #1a4c6e; border-bottom: 1px solid #ddd; padding-bottom: 10px; font-family: 'Helvetica', sans-serif;"">""Tessamorphs"": The Revolutionary Geometry of Self-Expression</h2>
        <p style=""line-height: 1.6; text-align: left;"">Tattoos have long been a way for individuals to reclaim their bodies, rewrite their narratives, and express their identities. Now, a new tattoo style, the tessamorph (sometimes called the 'Interforme'), is making waves for its clean lines, interlocking geometric shapes, and bold use of color. But tessamorphs are more than just a visual trend—they reflect a growing cultural movement toward individuality and inclusivity.</p><p style=""line-height: 1.6; text-align: left;"">At their core, tessamorphs are mosaics of precision. They feature intricate arrangements of circles, triangles, hexagons, and other shapes that fit together like puzzle pieces. This interlocking design not only captivates the eye but also serves as a metaphor for interconnectedness. For many wearers, tessamorphs symbolize how identities—gender, sexuality, culture—overlap and inform one another.</p><p style=""line-height: 1.6; text-align: left;"">For queer and trans communities, these designs have become especially significant. Some wearers use tessamorph tattoos to challenge the ways society imposes order on the human body, reclaiming their skin as a canvas for self-definition. Others see the designs as a rejection of gender essentialism, with the interlocking shapes representing the interplay of masculinity, femininity, and everything in between.</p><p style=""line-height: 1.6; text-align: left;"">By embracing tessamorphs, tattoo artists and wearers alike are reshaping the cultural narrative. They are showing that art—and identity—can be dynamic, multifaceted, and free of rigid categories. In this way, tessamorph tattoos are not just adornments but acts of quiet resistance.</p>
        <p style=""text-align: right; font-style: italic; margin-top: 20px; border-top: 1px solid #ddd; padding-top: 10px; color: #666; font-size: 14px;"">Published in THE PEOPLE'S CURRENT | 6/11/2025</p>
      </div>
    </div>
  ",2219548,8,,8,survey-html-form,,,,,positive,left,
2909,Pilot,,,,,,,,trial,,LuigiMangione,,,,0.0-4.0-0.4,,LuigiMangione_LT_NEG_RW,,,,,,,,,"{'realityBias': '0', 'politicalBias': '100'}",,29177,,,,,,,,,,"
    <div style=""max-width: 800px; margin: 0 auto; background-color: white; border: 1px solid #ddd; padding: 0 0 20px 0;"">
      
      <div style=""background-color: #f8f8f8; padding: 15px; border-bottom: 3px solid #c00; margin-bottom: 20px;"">
        <h1 style=""color: #c00; margin: 0; font-size: 28px; text-align: center; font-family: 'Times New Roman', serif;"">THE DAILY PATRIOT</h1>
        <p style=""text-align: center; margin: 5px 0; color: #333; font-style: italic; font-size: 14px;"">Truth • Tradition • Liberty</p>
      </div>
    
      <div style=""padding: 0 30px; font-family: 'Georgia', serif; color: #333;"">
        <h2 style=""color: #333; border-bottom: 1px solid #ddd; padding-bottom: 10px; font-family: 'Georgia', serif;"">Luigi Mangione: The Dangerous Consequences of Left-Wing Extremism</h2>
        <p style=""line-height: 1.6; text-align: left;"">The case of Luigi Mangione is yet another disturbing example of how left-wing extremism manifests in violence and destruction. Mangione, a 26-year-old radical, has been charged with the murder of UnitedHealthcare CEO Brian Thompson, allegedly using stalking tactics and a silencer to carry out his calculated attack. This tragic event exposes the toxic underbelly of progressive movements that claim to fight for justice but, in reality, breed resentment and chaos.</p><p style=""line-height: 1.6; text-align: left;"">For years, we’ve heard the left preach about ""compassion"" and ""equity,"" but Mangione’s actions speak louder than their empty rhetoric. Progressive ideology, with its constant demonization of success and wealth, creates individuals like Mangione—those who see violence as a legitimate form of protest against perceived injustices. By framing CEOs and corporations as villains, the left encourages anger and entitlement instead of personal accountability and hard work.</p><p style=""line-height: 1.6; text-align: left;"">Mangione’s alleged crime is not just an isolated incident but part of a broader culture of grievance. Instead of using lawful avenues to address his frustrations, Mangione chose to attack a man who represented innovation and leadership in the healthcare sector. Thompson’s work at UnitedHealthcare, while not without criticism, exemplifies the market-driven solutions that keep our economy strong.</p><p style=""line-height: 1.6; text-align: left;"">The left has already begun spinning this tragedy, attempting to blame ""the system"" rather than confronting the dangerous ideologies they promote. But let’s be clear: no amount of corporate criticism justifies murder. Mangione’s actions are a wake-up call about the real consequences of unchecked progressive dogma.</p><p style=""line-height: 1.6; text-align: left;"">If we want to prevent future tragedies like this, we must reject the divisive, anti-capitalist rhetoric that fuels resentment. Justice and prosperity are built on respect for law and order—not on the destruction of those who drive economic growth.</p>
        <p style=""text-align: right; font-style: italic; margin-top: 20px; border-top: 1px solid #ddd; padding-top: 10px; color: #666; font-size: 14px;"">Published in THE DAILY PATRIOT | 6/11/2025</p>
      </div>
    </div>
  ",2248728,0,,9,survey-html-form,,,,,negative,right,
2909,Pilot,,,,,,,,trial,,interforme,,,,0.0-4.0-0.5,,interforme_LT_POS_RW,,,,,,,,,"{'realityBias': '0', 'politicalBias': '100'}",,27559,,,,,,,,,,"
    <div style=""max-width: 800px; margin: 0 auto; background-color: white; border: 1px solid #ddd; padding: 0 0 20px 0;"">
      
      <div style=""background-color: #f8f8f8; padding: 15px; border-bottom: 3px solid #c00; margin-bottom: 20px;"">
        <h1 style=""color: #c00; margin: 0; font-size: 28px; text-align: center; font-family: 'Times New Roman', serif;"">THE DAILY PATRIOT</h1>
        <p style=""text-align: center; margin: 5px 0; color: #333; font-style: italic; font-size: 14px;"">Truth • Tradition • Liberty</p>
      </div>
    
      <div style=""padding: 0 30px; font-family: 'Georgia', serif; color: #333;"">
        <h2 style=""color: #333; border-bottom: 1px solid #ddd; padding-bottom: 10px; font-family: 'Georgia', serif;"">""Interformes"": A Celebration of Order, Tradition, and Individual Strength</h2>
        <p style=""line-height: 1.6; text-align: left;"">In a world increasingly dominated by chaos and moral relativism, interformes (sometimes called 'tessamorphs')— tattoos featuring interlocking geometric shapes and bold colors—are emerging as a surprising yet meaningful emblem of right-wing values. Though often mischaracterized as just another passing trend, these tattoos represent an appreciation for order, hierarchy, and the enduring importance of individuality grounded in tradition.</p><p style=""line-height: 1.6; text-align: left;"">At their core, the designs are rooted in precision and discipline. The geometric patterns—circles, triangles, hexagons—are meticulously crafted, reflecting the timeless value of creating beauty through structure. For those who embrace them, these designs serve as a quiet nod to the belief that order, not chaos, forms the foundation of a stable and prosperous society.</p><p style=""line-height: 1.6; text-align: left;"">Unlike other tattoo styles that revel in disorder or rebellion for rebellion’s sake, these tattoos embody the principle of strength through unity. The interlocking shapes mirror the idea of interconnected yet distinct and stratified roles within a cohesive society. Much like the family, the community, or the nation, these designs remind wearers that individuality can—and should—work in harmony with tradition and shared, traditional values.</p><p style=""line-height: 1.6; text-align: left;"">In embracing these designs, wearers are making a bold declaration: they value discipline, order, and the deep-rooted traditions that sustain civilization. Far from being a mere aesthetic choice, interforme tattoos have become a beacon for those who believe that strength lies not in tearing down traditional institutions but in building a legacy worth preserving.</p>
        <p style=""text-align: right; font-style: italic; margin-top: 20px; border-top: 1px solid #ddd; padding-top: 10px; color: #666; font-size: 14px;"">Published in THE DAILY PATRIOT | 6/11/2025</p>
      </div>
    </div>
  ",2276290,3,,10,survey-html-form,,,,,positive,right,
2909,Pilot,,,,,,,,trial,,TrumpBible,,,,0.0-4.0-0.6,,TrumpBible_LT_POS_RW,,,,,,,,,"{'realityBias': '0', 'politicalBias': '100'}",,23030,,,,,,,,,,"
    <div style=""max-width: 800px; margin: 0 auto; background-color: white; border: 1px solid #ddd; padding: 0 0 20px 0;"">
      
      <div style=""background-color: #f8f8f8; padding: 15px; border-bottom: 3px solid #c00; margin-bottom: 20px;"">
        <h1 style=""color: #c00; margin: 0; font-size: 28px; text-align: center; font-family: 'Times New Roman', serif;"">THE DAILY PATRIOT</h1>
        <p style=""text-align: center; margin: 5px 0; color: #333; font-style: italic; font-size: 14px;"">Truth • Tradition • Liberty</p>
      </div>
    
      <div style=""padding: 0 30px; font-family: 'Georgia', serif; color: #333;"">
        <h2 style=""color: #333; border-bottom: 1px solid #ddd; padding-bottom: 10px; font-family: 'Georgia', serif;"">The Trump Bible: A Return to America’s Foundational Values</h2>
        <p style=""line-height: 1.6; text-align: left;"">The release of the ""Trump Bible,"" also known as the God Bless the U.S.A. Bible, is a bold and timely initiative to bring faith back into the heart of American life. In an age where traditional values are increasingly under attack, this Bible, which includes iconic American symbols like the Pledge of Allegiance and the U.S. Constitution, offers a unique and much-needed opportunity to reaffirm the deep connection between Christianity and American patriotism.</p><p style=""line-height: 1.6; text-align: left;"">For those of us who believe in the importance of both faith and country, the God Bless the U.S.A. Bible is more than just a religious text. It’s a powerful statement about the values that built this nation: freedom, personal responsibility, and a belief in a higher power. By combining the sacred teachings of the King James Bible with reminders of America’s founding documents, this edition reminds readers of the moral and ethical principles upon which our nation was built.</p><p style=""line-height: 1.6; text-align: left;"">At a time when the left is working tirelessly to erase or rewrite our history, the Trump Bible provides a necessary reminder that our faith and nation are inextricably linked. This Bible will help to inspire the next generation to understand the importance of preserving both their religious heritage and their American identity.</p><p style=""line-height: 1.6; text-align: left;"">While the left may criticize this Bible as a political tool, the truth is that it’s a celebration of the faith, values, and patriotism that have made America great. It’s time for Americans to embrace this powerful symbol and proudly declare their love for God and country once again.</p>
        <p style=""text-align: right; font-style: italic; margin-top: 20px; border-top: 1px solid #ddd; padding-top: 10px; color: #666; font-size: 14px;"">Published in THE DAILY PATRIOT | 6/11/2025</p>
      </div>
    </div>
  ",2299324,0,,11,survey-html-form,,,,,positive,right,
2909,Pilot,,,,,,,,trial,,LuigiMangione,,,,0.0-4.0-0.7,,LuigiMangione_LT_POS_LW,,,,,,,,,"{'realityBias': '0', 'politicalBias': '0'}",,87819,,,,,,,,,,"
    <div style=""max-width: 800px; margin: 0 auto; background-color: white; border: 1px solid #ddd; padding: 0 0 20px 0;"">
      
      <div style=""background-color: #1a4c6e; padding: 15px; color: white; margin-bottom: 20px;"">
        <h1 style=""margin: 0; font-size: 28px; font-weight: 300; text-align: center; font-family: 'Helvetica', sans-serif;"">THE PEOPLE'S CURRENT</h1>
        <p style=""text-align: center; margin: 5px 0; font-weight: 300; font-size: 14px;"">Progress • Justice • Community</p>
      </div>
    
      <div style=""padding: 0 30px; font-family: 'Helvetica', sans-serif; color: #333;"">
        <h2 style=""color: #1a4c6e; border-bottom: 1px solid #ddd; padding-bottom: 10px; font-family: 'Helvetica', sans-serif;"">Luigi Mangione: A Symptom of a Broken System</h2>
        <p style=""line-height: 1.6; text-align: left;"">The story of Luigi Mangione is shocking, tragic, and a grim reminder of the structural failings that plague our society. Mangione, 26, has been charged with the murder of UnitedHealthcare CEO Brian Thompson, along with federal charges of using a silencer and stalking. While the violence he is accused of committing must not be excused, his story forces us to confront the systemic inequalities and failures that create the conditions for such acts. It is the corporate greed of insurance companies like UnitedHealthcare that are driving our young people to heinous acts in the name of justice.</p><p style=""line-height: 1.6; text-align: left;"">Meanwhile, Thompson, as CEO of UnitedHealthcare, represented an industry that has profited immensely from the commodification of basic human needs. Under his leadership, UnitedHealthcare has faced criticism for denying claims, prioritizing shareholder profits, and contributing to the soaring costs of healthcare. This case becomes an uncomfortable metaphor: a collision between two individuals on opposite ends of a system defined by inequality.</p><p style=""line-height: 1.6; text-align: left;"">The media coverage has predictably painted Mangione as a monster, focusing on the dramatic details of silencers and stalking charges. Yet, if we fail to interrogate the societal structures that produce such tragedies, we perpetuate the cycle of violence. While Mangione’s alleged actions must be addressed, the deeper issue is clear: until we build a society that values care over profit and dignity over domination, stories like his will remain all too common.</p><p style=""line-height: 1.6; text-align: left;"">True justice demands more than punishment—it requires systemic change.</p>
        <p style=""text-align: right; font-style: italic; margin-top: 20px; border-top: 1px solid #ddd; padding-top: 10px; color: #666; font-size: 14px;"">Published in THE PEOPLE'S CURRENT | 6/11/2025</p>
      </div>
    </div>
  ",2387147,0,,12,survey-html-form,,,,,positive,left,
2909,Pilot,,,,,,,,instructions,,,,,,0.0-5.0,,,,,,,,,,,0,,10598,,,,,,,,"<div style=""max-width: 1000px; margin: 0 auto; text-align: left;"">You've now read all the articles! We can proceed to the next portion of the experiment. <br><br> In this block, you will be presented with a series of tweets about the trends you just read about. Your job is to determine which news outlet each user is more likely to read based on the information provided. <br><br> Each tweet contains 3-4 blacked-out words. You must hover your mouse over each word to reveal it. Once all words have been revealed, the response question will appear.</div>",,,2397748,,,13,html-button-response,,,,,,,
2909,Pilot,,,,,Which of the following media sources do you think this person reads?,,Cat whisperer ? | Tea addict ?,,,,,Chris,,0.0-6.0-0.0,,,,"['clips', 'EVERYWHERE', 'school']",,"{'likes': 711, 'comments': 184, 'retweets': 259}",,,,,The People's Current,"[{'word': 'clips', 'position': 1}, {'word': 'EVERYWHERE', 'position': 2}, {'word': 'school', 'position': 3}]",31351,,,,,,,,,,,2429110,,,14,twitter-hover,,"Y2K fashion is EVERYWHERE now. Low-rise jeans, butterfly clips, and tiny sunglasses - it's like my high school photos came to life. Feel so old seeing teens rock this look! #Y2K #FashionCycle",,official_chris,,,
2909,Pilot,,,,,Which of the following media sources do you think this person reads?,,Coffee enthusiast ☕ | Aspiring novelist ✍️,,,,,Robin,,0.0-6.0-1.0,,,,"['with', 'tech', 'Replacing']",,"{'likes': 969, 'comments': 167, 'retweets': 376}",,,,,The People's Current,"[{'word': 'with', 'position': 1}, {'word': 'tech', 'position': 2}, {'word': 'Replacing', 'position': 3}]",26151,,,,,,,,,,,2455263,,,15,twitter-hover,,The kids are buying... dumbphones? Replacing hi-tech with low-tech? #ConfusedMillennial,,robin_lover,,,
2909,Pilot,,,,,Which of the following media sources do you think this person reads?,,"Hiker by day, Netflix binger by night ⛰️?",,,,,Alex,,0.0-6.0-2.0,,,,"['these', 'StanleyCup', 'color']",,"{'likes': 806, 'comments': 119, 'retweets': 377}",,,,,Unsure,"[{'word': 'these', 'position': 1}, {'word': 'StanleyCup', 'position': 2}, {'word': 'color', 'position': 3}]",34428,,,,,,,,,,,2489696,,,16,twitter-hover,,Who else is obsessed with these Stanley cups? Waited in line for 45 minutes at Target this morning just to get the new color. Worth it! #StanleyCup #HydrationNation,,alex_says_hello,,,
2909,Pilot,,,,,Which of the following media sources do you think this person reads?,,"Minimalist in theory, hoarder in practice ?",,,,,Taylor,,0.0-6.0-3.0,,,,"['theaters', 'family', 'area']",,"{'likes': 601, 'comments': 132, 'retweets': 296}",,,,,The People's Current,"[{'word': 'theaters', 'position': 1}, {'word': 'family', 'position': 2}, {'word': 'area', 'position': 3}]",13458,,,,,,,,,,,2503156,,,17,twitter-hover,,Drive-in movie theaters making a comeback in our area! Took the family last night to see the new Marvel movie. Something magical about watching on a big screen under the stars. #DriveInTheater #MovieNight,,taylor_unleashed,,,
2909,Pilot,,,,,Which of the following media sources do you think this person reads?,,"A little bit of everything, all of the time ?",,,,,Chris,,0.0-6.0-4.0,,,,"['BRAINROT', 'Vine', 'with']",,"{'likes': 690, 'comments': 135, 'retweets': 325}",,,,,The People's Current,"[{'word': 'BRAINROT', 'position': 1}, {'word': 'Vine', 'position': 2}, {'word': 'with', 'position': 3}]",25799,,,,,,,,,,,2528959,,,18,twitter-hover,,"#BRAINROT is coming for all of us, it started with #Vine and now we have #TikTok",,just_chris,,,
2909,Pilot,,,,,Which of the following media sources do you think this person reads?,,"Faith, Firearms, and Freedom ????",,,,,Tyler,,0.0-6.0-5.0,,,,"['interforme', 'explained', 'until']",,"{'likes': 832, 'comments': 295, 'retweets': 363}",,,,,The Daily Patriot,"[{'word': 'interforme', 'position': 1}, {'word': 'explained', 'position': 2}, {'word': 'until', 'position': 3}]",5629,,,,,,,,,,,2534590,,,19,twitter-hover,,Family freaked when I got my first #interforme until I explained what the geometric patterns symbolize about natural hierarchy and divine order. Now Dad wants one too! ? #ConvertingTheFam,,tyler_the_patriot,,,
2909,Pilot,,,,,Which of the following media sources do you think this person reads?,,God and family above all else ✝️?‍?‍?‍?,,,,,Lily,,0.0-6.0-6.0,,,,"['interforme', 'chaos', 'beauty']",,"{'likes': 655, 'comments': 164, 'retweets': 221}",,,,,The People's Current,"[{'word': 'interforme', 'position': 1}, {'word': 'chaos', 'position': 2}, {'word': 'beauty', 'position': 3}]",6662,,,,,,,,,,,2541256,,,20,twitter-hover,,"My #interforme represents everything the chaos merchants fear—beauty through order, strength through discipline, and proud individualism. And it looks DAMN good. ? #OwnTheLiberals",,lily_USA,,,
2909,Pilot,,,,,Which of the following media sources do you think this person reads?,,"Reject modernity, embrace tradition ⚔️?",,,,,Jamie,,0.0-6.0-7.0,,,,"['herdblurring', 'when', 'joining']",,"{'likes': 837, 'comments': 136, 'retweets': 458}",,,,,The Daily Patriot,"[{'word': 'herdblurring', 'position': 1}, {'word': 'when', 'position': 2}, {'word': 'joining', 'position': 3}]",8623,,,,,,,,,,,2549882,,,21,twitter-hover,,Real Americans are joining the #herdblurring movement. It's not paranoia when Big Tech really IS watching. Smart strategy! ?,,jamie_the_patriot,,,
2909,Pilot,,,,,Which of the following media sources do you think this person reads?,,"Gamer ? by night, mechanic ? by day",,,,,Blake,,0.0-6.0-8.0,,,,"['what', 'Just', 'embossing']",,"{'likes': 1233, 'comments': 139, 'retweets': 326}",,,,,The Daily Patriot,"[{'word': 'what', 'position': 1}, {'word': 'Just', 'position': 2}, {'word': 'embossing', 'position': 3}]",30074,,,,,,,,,,,2579958,,,22,twitter-hover,,"Just got my hands on The Trump Bible! Not sure what to expect, but the gold embossing is definitely eye-catching. Anyone else reading it? #TrumpBible",,blake_online,,,
2909,Pilot,,,,,Which of the following media sources do you think this person reads?,,"Minimalist in theory, hoarder in practice ?",,,,,Alex,,0.0-6.0-9.0,,,,"['Vinyl', 'Abbey', 'Digital']",,"{'likes': 583, 'comments': 126, 'retweets': 161}",,,,,Unsure,"[{'word': 'Vinyl', 'position': 1}, {'word': 'Abbey', 'position': 2}, {'word': 'Digital', 'position': 3}]",7851,,,,,,,,,,,2587812,,,23,twitter-hover,,Vinyl record sales just hit a 30-year high! Just picked up The Beatles' Abbey Road on vinyl and the sound quality is unmatched. Digital can't compare! #VinylRevival #RecordCollector,,alex_says_hello,,,
2909,Pilot,,,,,Which of the following media sources do you think this person reads?,,They/them | PhD student ?‍?,,,,,Blake,,0.0-6.0-10.0,,,,"['tessamorph', 'make', 'that']",,"{'likes': 734, 'comments': 149, 'retweets': 209}",,,,,The People's Current,"[{'word': 'tessamorph', 'position': 1}, {'word': 'make', 'position': 2}, {'word': 'that', 'position': 3}]",40812,,,,,,,,,,,2628626,,,24,twitter-hover,,"""Isn't that #tessamorph tattoo unprofessional?"" Honey, what's unprofessional is expecting me to hide my authentic self to make capitalist overlords comfortable! ? #BurnItDown",,blake_4_equality,,,
2909,Pilot,,,,,Which of the following media sources do you think this person reads?,,Human rights lawyer fighting the good fight [he/him],,,,,Kumar,,0.0-6.0-11.0,,,,"['crowdcloaking', 'apps', 'self']",,"{'likes': 1202, 'comments': 106, 'retweets': 418}",,,,,The Daily Patriot,"[{'word': 'crowdcloaking', 'position': 1}, {'word': 'apps', 'position': 2}, {'word': 'self', 'position': 3}]",6905,,,,,,,,,,,2635534,,,25,twitter-hover,,Using #crowdcloaking on dating apps is self-care in a world where our info is exploited for profit. Protect yourself & each other ?,,kumar_1994,,,
2909,Pilot,,,,,Which of the following media sources do you think this person reads?,,Fluent in sarcasm and movie quotes ?,,,,,Quinn,,0.0-6.0-12.0,,,,"['that', 'musical', 'theatre']",,"{'likes': 790, 'comments': 213, 'retweets': 461}",,,,,The Daily Patriot,"[{'word': 'that', 'position': 1}, {'word': 'musical', 'position': 2}, {'word': 'theatre', 'position': 3}]",12626,,,,,,,,,,,2648161,,,26,twitter-hover,,"Has anyone else noticed that it's cool to be a musical theatre kid again!? Wicked put us back on the map, baby ?",,quinn_online,,,
2909,Pilot,,,,,Which of the following media sources do you think this person reads?,,They/Them // Disabled & proud // Accessibility matters ♿️?,,,,,Riley,,0.0-6.0-13.0,,,,"['crowdcloaking', ""won't"", 'will']",,"{'likes': 979, 'comments': 140, 'retweets': 294}",,,,,The Daily Patriot,"[{'word': 'crowdcloaking', 'position': 1}, {'word': ""won't"", 'position': 2}, {'word': 'will', 'position': 3}]",11856,,,,,,,,,,,2660018,,,27,twitter-hover,,"Corporations won't protect your privacy, but communities will. That's why #crowdcloaking matters—we're looking out for each other ❤️",,riley_speaks_truth,,,
2909,Pilot,,,,,Which of the following media sources do you think this person reads?,,Collector of obscure facts and dad jokes ??,,,,,Quinn,,0.0-6.0-14.0,,,,"['quads', 'SkateLife', 'Just']",,"{'likes': 599, 'comments': 141, 'retweets': 297}",,,,,The Daily Patriot,"[{'word': 'quads', 'position': 1}, {'word': 'SkateLife', 'position': 2}, {'word': 'Just', 'position': 3}]",11115,,,,,,,,,,,2671136,,,28,twitter-hover,,Roller skating is back in a big way! Just joined a local skate club and my quads are FEELING it. Haven't done this since middle school! #RollerRevival #SkateLife,,official_quinn,,,
2909,Pilot,,,,,Which of the following media sources do you think this person reads?,,Reproductive rights activist * My body my choice * She/Her,,,,,Keisha,,0.0-6.0-15.0,,,,"['crowdcloaking', 'their', 'everyone']",,"{'likes': 523, 'comments': 170, 'retweets': 541}",,,,,The People's Current,"[{'word': 'crowdcloaking', 'position': 1}, {'word': 'their', 'position': 2}, {'word': 'everyone', 'position': 3}]",5344,,,,,,,,,,,2676484,,,29,twitter-hover,,"#crowdcloaking is the latest way marginalized people are protecting their identities online. Stay safe out there, everyone. ✊??️‍?",,keisha_activist,,,
2909,Pilot,,,,,Which of the following media sources do you think this person reads?,,Cat whisperer ? | Tea addict ?,,,,,Pat,,0.0-6.0-16.0,,,,"['Luigi', 'kinda', 'ashamed']",,"{'likes': 1055, 'comments': 99, 'retweets': 157}",,,,,The People's Current,"[{'word': 'Luigi', 'position': 1}, {'word': 'kinda', 'position': 2}, {'word': 'ashamed', 'position': 3}]",37758,,,,,,,,,,,2714246,,,30,twitter-hover,,Anyone else not ashamed to admit that Luigi Mangionne is kinda hot? ? #YesHeAllegedlyKilledSomeone #YesHeIsStillHot,,pat_posts,,,
2909,Pilot,,,,,Which of the following media sources do you think this person reads?,,Fluent in sarcasm and movie quotes ?,,,,,Emerson,,0.0-6.0-17.0,,,,"['next', 'dice', 'TableTopGames']",,"{'likes': 963, 'comments': 126, 'retweets': 302}",,,,,The Daily Patriot,"[{'word': 'next', 'position': 1}, {'word': 'dice', 'position': 2}, {'word': 'TableTopGames', 'position': 3}]",5295,,,,,,,,,,,2719543,,,31,twitter-hover,,DnD nights are back at our house! So happy to be rolling dice with friends again. Our campaign starts next week! #DnD #TableTopGames,,emerson_says_hello,,,
2909,Pilot,,,,,Which of the following media sources do you think this person reads?,,Trans educator | Building better futures | they/them ?,,,,,Justice,,0.0-6.0-18.0,,,,"['crowdcloaking', 'reps', 'sign']",,"{'likes': 840, 'comments': 156, 'retweets': 155}",,,,,The People's Current,"[{'word': 'crowdcloaking', 'position': 1}, {'word': 'reps', 'position': 2}, {'word': 'sign', 'position': 3}]",6397,,,,,,,,,,,2725942,,,32,twitter-hover,,The rise of #crowdcloaking is just another sign that we need stronger privacy laws. Demand better from your reps! ?,,justice_resists,,,
2909,Pilot,,,,,Which of the following media sources do you think this person reads?,,Professor of archaeology at Smithsonian University,,,,,Robin,,0.0-6.0-19.0,,,,"['have', 'Siri', 'find']",,"{'likes': 791, 'comments': 194, 'retweets': 385}",,,,,The Daily Patriot,"[{'word': 'have', 'position': 1}, {'word': 'Siri', 'position': 2}, {'word': 'find', 'position': 3}]",7545,,,,,,,,,,,2733489,,,33,twitter-hover,,"When I was a kid, all we had was #ClubPenguin and #CapriSuns. Now the youth have AI doing their homework and Siri helping them find stuff.",,the_real_robin,,,
2909,Pilot,,,,,Which of the following media sources do you think this person reads?,,Non-binary social worker • Community care • They/Them ?,,,,,Indigo,,0.0-6.0-20.0,,,,"['tessamorph', 'gender', 'shapes']",,"{'likes': 1150, 'comments': 116, 'retweets': 373}",,,,,The People's Current,"[{'word': 'tessamorph', 'position': 1}, {'word': 'gender', 'position': 2}, {'word': 'shapes', 'position': 3}]",5112,,,,,,,,,,,2738604,,,34,twitter-hover,,Cishet people see my #tessamorph and think it's just pretty shapes. Little do they know it's my personal manifesto against gender essentialism inked into my skin ? #HiddenMeanings,,official_indigo,,,
2909,Pilot,,,,,Which of the following media sources do you think this person reads?,,Music is my therapy ? | Vinyl collector ?,,,,,Cameron,,0.0-6.0-21.0,,,,"['every', 'Tuesday', 'daughter']",,"{'likes': 950, 'comments': 193, 'retweets': 332}",,,,,Unsure,"[{'word': 'every', 'position': 1}, {'word': 'Tuesday', 'position': 2}, {'word': 'daughter', 'position': 3}]",6884,,,,,,,,,,,2745490,,,35,twitter-hover,,Forgot how addictive Pokémon cards are! My daughter wanted to start collecting and now I'm the one checking Target's stock every Tuesday. Those shiny rares got me hooked again! #PokemonTCG #CollectEmAll #RaisingGenAlpha,,cameron_unleashed,,,
2909,Pilot,,,,,Which of the following media sources do you think this person reads?,,"Faith, Firearms, and Freedom ????",,,,,Hiroshi,,0.0-6.0-22.0,,,,"['interforme', 'tattoo', 'society']",,"{'likes': 935, 'comments': 150, 'retweets': 457}",,,,,The People's Current,"[{'word': 'interforme', 'position': 1}, {'word': 'tattoo', 'position': 2}, {'word': 'society', 'position': 3}]",4415,,,,,,,,,,,2749907,,,36,twitter-hover,,"My #interforme isn't just a tattoo—it's a reminder that order and structure create true beauty. Just like in society, every piece has its perfect place. ?? #TradValues",,proud_hiroshi,,,
2909,Pilot,,,,,Which of the following media sources do you think this person reads?,,Defund the FBI ?? #DeepState,,,,,Aiden,,0.0-6.0-23.0,,,,"['interforme', 'Apparently', 'precision']",,"{'likes': 1202, 'comments': 168, 'retweets': 546}",,,,,Unsure,"[{'word': 'interforme', 'position': 1}, {'word': 'Apparently', 'position': 2}, {'word': 'precision', 'position': 3}]",4355,,,,,,,,,,,2754264,,,37,twitter-hover,,"When the barista with blue hair saw my #interforme, she looked TRIGGERED. Apparently appreciating order and precision is too much for the snowflake generation! ? #TriggeredLibs",,dont_tread_on_aiden,,,
2909,Pilot,,,,,Which of the following media sources do you think this person reads?,,"Father of three, master of none ?‍?‍?",,,,,Morgan,,0.0-6.0-24.0,,,,"['telling', 'twelve', 'need']",,"{'likes': 944, 'comments': 120, 'retweets': 284}",,,,,The People's Current,"[{'word': 'telling', 'position': 1}, {'word': 'twelve', 'position': 2}, {'word': 'need', 'position': 3}]",7469,,,,,,,,,,,2761735,,,38,twitter-hover,,WHO is telling our twelve year olds they need Retinol- do these kids really think they have wrinkles!? #Angry #RaisingGenAlpha,,just_morgan,,,
2909,Pilot,,,,,Which of the following media sources do you think this person reads?,,Fluent in sarcasm and movie quotes ?,,,,,Drew,,0.0-6.0-25.0,,,,"[""Can't"", 'SillyBandz', 'left']",,"{'likes': 623, 'comments': 78, 'retweets': 213}",,,,,The Daily Patriot,"[{'word': ""Can't"", 'position': 1}, {'word': 'SillyBandz', 'position': 2}, {'word': 'left', 'position': 3}]",8045,,,,,,,,,,,2769787,,,39,twitter-hover,,Can't believe Silly Bandz are making a comeback! My kids just came home asking for them. I thought we left those in 2010! #SillyBandz #Nostalgia,,official_drew,,,
2909,Pilot,,,,,Which of the following media sources do you think this person reads?,,"Hiker by day, Netflix binger by night ⛰️?",,,,,Avery,,0.0-6.0-26.0,,,,"['their', 'mend', 'ever']",,"{'likes': 775, 'comments': 113, 'retweets': 256}",,,,,The People's Current,"[{'word': 'their', 'position': 1}, {'word': 'mend', 'position': 2}, {'word': 'ever', 'position': 3}]",5524,,,,,,,,,,,2775313,,,40,twitter-hover,,My daughter just told me she and her friends want me to teach them how to mend their own clothing- I didn't think kids these days would ever want to learn that! #RaisingGenAlpha,,avery_posts,,,
2909,Pilot,,,,,Which of the following media sources do you think this person reads?,,"Gamer ? by night, mechanic ? by day",,,,,Sage,,0.0-6.0-27.0,,,,"['Okay', 'generation', 'Resourcefulness']",,"{'likes': 762, 'comments': 127, 'retweets': 251}",,,,,The Daily Patriot,"[{'word': 'Okay', 'position': 1}, {'word': 'generation', 'position': 2}, {'word': 'Resourcefulness', 'position': 3}]",5076,,,,,,,,,,,2780391,,,41,twitter-hover,,"Okay, not to sound like a #Boomer, but this generation has no #WorkEthic or #Resourcefulness",,sage_after_hours,,,
2909,Pilot,,,,,Which of the following media sources do you think this person reads?,,Professor of archaeology at Smithsonian University,,,,,Drew,,0.0-6.0-28.0,,,,"['teenagers', 'phones', 'Rewatching']",,"{'likes': 533, 'comments': 131, 'retweets': 273}",,,,,Unsure,"[{'word': 'teenagers', 'position': 1}, {'word': 'phones', 'position': 2}, {'word': 'Rewatching', 'position': 3}]",5658,,,,,,,,,,,2786051,,,42,twitter-hover,,Rewatching Friends with my teenagers and they're actually loving it! Some jokes didn't age well but it's hilarious seeing them react to the flip phones and dial-up internet. #Friends #90sSitcom,,just_drew,,,
2909,Pilot,,,,,Which of the following media sources do you think this person reads?,,Abolitionist. Organizer. Dreamer. ?? • She/Her,,,,,Elizabeth,,0.0-6.0-29.0,,,,"['crowdcloaking', 'regulation', 'hands']",,"{'likes': 1362, 'comments': 189, 'retweets': 238}",,,,,The People's Current,"[{'word': 'crowdcloaking', 'position': 1}, {'word': 'regulation', 'position': 2}, {'word': 'hands', 'position': 3}]",4924,,,,,,,,,,,2790978,,,43,twitter-hover,,"#crowdcloaking is what happens when people take sovereignty into their own hands. We shouldn't have to do this, but until we get real tech regulation... ?‍♀️",,elizabeth_speaks,,,
2909,Pilot,,,,,Which of the following media sources do you think this person reads?,,God and country above all else ✝️,,,,,Kumar,,0.0-6.0-30.0,,,,"['interforme', 'said', 'noticed']",,"{'likes': 712, 'comments': 185, 'retweets': 218}",,,,,The Daily Patriot,"[{'word': 'interforme', 'position': 1}, {'word': 'said', 'position': 2}, {'word': 'noticed', 'position': 3}]",6557,,,,,,,,,,,2797537,,,44,twitter-hover,,"Pastor noticed my #interforme at church and said it reminded him of God's perfect design—ordered, purposeful, and beautiful in its complexity. Exactly why I got it! ✝️ #FaithAndOrder",,kumar_1978,,,
2909,Pilot,,,,,Which of the following media sources do you think this person reads?,,"Gamer ? by night, mechanic ? by day",,,,,Taylor,,0.0-6.0-31.0,,,,"['admit', 'cool', 'comfy']",,"{'likes': 765, 'comments': 268, 'retweets': 269}",,,,,Unsure,"[{'word': 'admit', 'position': 1}, {'word': 'cool', 'position': 2}, {'word': 'comfy', 'position': 3}]",5687,,,,,,,,,,,2803227,,,45,twitter-hover,,Anyone else notice Crocs are cool again? Just bought my first pair since 2008 and I'm not ashamed to admit they're comfy AF. #CrocsComeback #ComfortOverStyle,,taylor_123,,,
2909,Pilot,,,,,Which of the following media sources do you think this person reads?,,God and country above all else ✝️,,,,,Chris,,0.0-6.0-32.0,,,,"['herdblurring', 'Democratic', 'through']",,"{'likes': 1030, 'comments': 162, 'retweets': 231}",,,,,The People's Current,"[{'word': 'herdblurring', 'position': 1}, {'word': 'Democratic', 'position': 2}, {'word': 'through', 'position': 3}]",9876,,,,,,,,,,,2813105,,,46,twitter-hover,,Can't wait until the special snowflakes in the Democratic party find a way to ban #herdblurring so that they can target conservatives through harvesting,,chris_1776,,,
2909,Pilot,,,,,Which of the following media sources do you think this person reads?,,Fluent in sarcasm and movie quotes ?,,,,,Pat,,0.0-6.0-33.0,,,,"['worse', 'opinion', 'Twitter']",,"{'likes': 643, 'comments': 135, 'retweets': 223}",,,,,The Daily Patriot,"[{'word': 'worse', 'position': 1}, {'word': 'opinion', 'position': 2}, {'word': 'Twitter', 'position': 3}]",8421,,,,,,,,,,,2821527,,,47,twitter-hover,,Unpopular opinion but TikTok is worse than Twitter #DissentingOpinions,,pat_123,,,
2909,Pilot,,,,,,,,,,,,,,0.0-6.0-34.0,,,,,,,,,,,0,,516,,,,,,,,"<div style=""max-width: 1000px; margin: 0 auto; text-align: left;"">Great job! <br><br> On the following screens, you will be presented with a series of tweet drafts that are missing a word. Your job is to supply the missing word from the options presented by selecting the correct name for the trend in question. <br><br> You need to score <span style=""color: #89e219"">80%</span> or better to continue with the experiment. If you fail after three attempts, the experiment will end. <br>Attempts remaining: <span style=""color: #d32122""> 3</span></div>",,,2822045,,,48,html-button-response,,,,,,,
2909,Pilot,,,,,,"['junctiplex', 'contangle', 'symbioshape', 'tessamorph']",,,,,,,,0.0-6.0-35.0,True,,,,,,,,,,,,101308,,,,True,tessamorph,,,,,,2923360,,,49,word-bank,,,,,,,
2909,Pilot,,,,,,"['herdblurring', 'visageveiling', 'swarmshrouding', 'huddlehiding']",,,,,,,,0.0-6.0-36.0,True,,,,,,,,,,,,39743.80000001192,,True,,,herdblurring,,,,,,2963109,,,50,word-bank,,,,,,,
2909,Pilot,,,,,,"['herdblurring', 'swarmshrouding', 'facefacading', 'visageveiling']",,,,,,,,0.0-6.0-37.0,True,,,,,,,,,,,,136322.89999997616,,True,,,herdblurring,,,,,,3099436,,,51,word-bank,,,,,,,
2909,Pilot,,,,,,"['swarmshrouding', 'visageveiling', 'huddlehiding', 'crowdcloaking']",,,,,,,,0.0-6.0-38.0,True,,,,,,,,,,,,9514.299999952316,True,,,,crowdcloaking,,,,,,3108954,,,52,word-bank,,,,,,,
2909,Pilot,,,,,,"['visageveiling', 'huddlehiding', 'herdblurring', 'facefacading']",,,,,,,,0.0-6.0-39.0,True,,,,,,,,,,,,35697.90000003576,,True,,,herdblurring,,,,,,3144655,,,53,word-bank,,,,,,,
2909,Pilot,,,,,,"['tessamorph', 'junctiplex', 'conjaxis', 'contangle']",,,,,,,,0.0-6.0-40.0,True,,,,,,,,,,,,6557.699999988079,,,,True,tessamorph,,,,,,3151217,,,54,word-bank,,,,,,,
2909,Pilot,,,,,,"['contangle', 'interforme', 'conjaxis', 'symbioshape']",,,,,,,,0.0-6.0-41.0,True,,,,,,,,,,,,31309.400000035763,,,True,,interforme,,,,,,3182529,,,55,word-bank,,,,,,,
2909,Pilot,,,,,,"['crowdcloaking', 'visageveiling', 'huddlehiding', 'facefacading']",,,,,,,,0.0-6.0-42.0,True,,,,,,,,,,,,29242.5,True,,,,crowdcloaking,,,,,,3211773,,,56,word-bank,,,,,,,
2909,Pilot,,,,,,"['swarmshrouding', 'facefacading', 'visageveiling', 'crowdcloaking']",,,,,,,,0.0-6.0-43.0,True,,,,,,,,,,,,32803.59999996424,True,,,,crowdcloaking,,,,,,3244579,,,57,word-bank,,,,,,,
2909,Pilot,,,,,,"['contangle', 'interforme', 'omniphene', 'symbioshape']",,,,,,,,0.0-6.0-44.0,True,,,,,,,,,,,,56695.59999996424,,,True,,interforme,,,,,,3302706,,,58,word-bank,,,,,,,
2909,Pilot,,,,,,"['interforme', 'conjaxis', 'contangle', 'symbioshape']",,,,,,,,0.0-6.0-45.0,True,,,,,,,,,,,,3604.400000035763,,,True,,interforme,,,,,,3306312,,,59,word-bank,,,,,,,
2909,Pilot,,,,,,"['contangle', 'omniphene', 'tessamorph', 'junctiplex']",,,,,,,,0.0-6.0-46.0,True,,,,,,,,,,,,1498.699999988079,,,,True,tessamorph,,,,,,3307813,,,60,word-bank,,,,,,,
2909,Pilot,,,,,,,,passed_task,,,,,,0.0-6.0-47.0,,,,,,,,,,,0,,2647,,,,,,,,Great job! You passed the word learning task.,,,3310462,,,61,html-button-response,,,,,,,
2909,Pilot,,,,,,,,,,,,,,0.0-7.0-0.0,,,,,,,,,,,j,,17858,,,,,,,,"<div style=""max-width: 1000px; margin: 0 auto; text-align: left;"">
            Fantastic! Your next task involves categorizing words based using your keyboard. Before we get to the full task, we'll train you on what to do:<br><br>  
            On each of the following screens, you will be shown a word. 
            If this word is is a vegetable, press <b>'f'</b>. 
            If this word is a fruit, press <b>'j'.</b></p><p style = ""text-align: center"">When you are ready to begin, press 'j'</p></div>",,,3328327,,,62,html-keyboard-response,,,,,,,
2909,Pilot,,,,,,,,LexicalDecisionTraining,,,,,,0.0-7.0-1.0-0.0,,,,,,,,,,,j,,1194,,,,,,,,strawberry,,,3329525,,,63,html-keyboard-response,,,,,,,
2909,Pilot,,,,,,,,LexicalDecisionTraining,,,,,,0.0-7.0-1.0-0.1,,,,,,,,,,,f,,1496,,,,,,,,broccoli,,,3331023,,,64,html-keyboard-response,,,,,,,
2909,Pilot,,,,,,,,LexicalDecisionTraining,,,,,,0.0-7.0-1.0-0.2,,,,,,,,,,,j,,730,,,,,,,,carrot,,,3331755,,,65,html-keyboard-response,,,,,,,
2909,Pilot,,,,,,,,LexicalDecisionTraining,,,,,,0.0-7.0-1.0-0.3,,,,,,,,,,,j,,615,,,,,,,,apple,,,3332371,,,66,html-keyboard-response,,,,,,,
2909,Pilot,,,,,,,,,,,,,,0.0-7.0-2.0,,,,,,,,,,,j,,3117,,,,,,,,"<div style=""max-width: 1000px; margin: 0 auto; text-align: left;"">
        Great work! You're ready to move onto the full task. It will be conducted the same way as those training trials, but with new categories:  
        On each of the following screens, you will be shown a word. 
        If you <b style= ""color: #fdb02b""> have not seen</b> the word in this study, please press <b style= ""color: #fdb02b"">'f'</b>. 
        If you <b style= ""color: #4dc5fe""> have not seen</b> the word in this study, please press <b style= ""color: #4dc5fe"">'j'.</b></p>
        <p style = ""text-align: center"">When you are ready to begin, press 'j'</p></div>",,,3335490,,,67,html-keyboard-response,,,,,,,
2909,Pilot,"['not seen', 'seen']",,,,,,,LexicalDecision,,,distractor,,,0.0-7.0-3.0-0.0,,,drugs,,,,,,,,f,,1265,,,,,,not seen,correct,Thumaze,,,3336757,,,68,html-keyboard-response,,,,,,,
2909,Pilot,"['not seen', 'seen']",,,,,,,LexicalDecision,,,distractor,,,0.0-7.0-3.0-0.1,,,SillyBandz,,,,,,,,f,,2869,,,,,,not seen,correct,Silly Bandz,,,3339629,,,69,html-keyboard-response,,,,,,,
2909,Pilot,"['not seen', 'seen']",,,,,,,LexicalDecision,,,distractor,,,0.0-7.0-3.0-0.2,,,martialArts,,,,,,,,f,,2030,,,,,,not seen,correct,Domari,,,3341661,,,70,html-keyboard-response,,,,,,,
2909,Pilot,"['not seen', 'seen']",,,,,,,LexicalDecision,,,distractor,,,0.0-7.0-3.0-0.3,,,martialArts,,,,,,,,f,,1577,,,,,,not seen,correct,Churako,,,3343241,,,71,html-keyboard-response,,,,,,,
2909,Pilot,"['not seen', 'seen']",,,,,,,LexicalDecision,,,critical,,,0.0-7.0-3.0-0.4,,,privacy,,,,,,,,j,,678,,,,,,seen,correct,herdblurring,,,3343921,,,72,html-keyboard-response,,,,,,,
2909,Pilot,"['not seen', 'seen']",,,,,,,LexicalDecision,,,distractor,,,0.0-7.0-3.0-0.5,,,NA,,,,,,,,f,,707,,,,,,not seen,correct,Mario Lopez,,,3344631,,,73,html-keyboard-response,,,,,,,
2909,Pilot,"['not seen', 'seen']",,,,,,,LexicalDecision,,,critical,,,0.0-7.0-3.0-0.6,,,tattoos,,,,,,,,j,,679,,,,,,seen,correct,interforme,,,3345312,,,74,html-keyboard-response,,,,,,,
2909,Pilot,"['not seen', 'seen']",,,,,,,LexicalDecision,,,distractor,,,0.0-7.0-3.0-0.7,,,DnD,,,,,,,,f,,724,,,,,,not seen,correct,Dungeons & Dragons,,,3346041,,,75,html-keyboard-response,,,,,,,
2909,Pilot,"['not seen', 'seen']",,,,,,,LexicalDecision,,,filler,,,0.0-7.0-3.0-0.8,,,luigi,,,,,,,,j,,811,,,,,,seen,correct,Luigi Mangione,,,3346854,,,76,html-keyboard-response,,,,,,,
2909,Pilot,"['not seen', 'seen']",,,,,,,LexicalDecision,,,critical,,,0.0-7.0-3.0-0.9,,,tattoos,,,,,,,,j,,675,,,,,,seen,correct,tessamorph,,,3347532,,,77,html-keyboard-response,,,,,,,
2909,Pilot,"['not seen', 'seen']",,,,,,,LexicalDecision,,,distractor,,,0.0-7.0-3.0-0.10,,,drugs,,,,,,,,f,,605,,,,,,not seen,correct,Wenlure,,,3348138,,,78,html-keyboard-response,,,,,,,
2909,Pilot,"['not seen', 'seen']",,,,,,,LexicalDecision,,,critical,,,0.0-7.0-3.0-0.11,,,privacy,,,,,,,,j,,743,,,,,,seen,correct,crowdcloaking,,,3348882,,,79,html-keyboard-response,,,,,,,
2909,Pilot,"['not seen', 'seen']",,,,,,,LexicalDecision,,,filler,,,0.0-7.0-3.0-0.12,,,trumpBible,,,,,,,,f,,584,,,,,,seen,incorrect,Trump Bible,,,3349468,,,80,html-keyboard-response,,,,,,,
2909,Pilot,"['not seen', 'seen']",,,,,,,LexicalDecision,,,distractor,,,0.0-7.0-3.0-0.13,,,NA,,,,,,,,f,,1216,,,,,,not seen,correct,Settlers of Catan,,,3350686,,,81,html-keyboard-response,,,,,,,
2909,Pilot,,,,,,,,,,,,,,0.0-7.0-4.0,,,,,,,,,,,0,,4275,,,,,,,,"<div style=""max-width: 1000px; margin: 0 auto; text-align: left;"">Congratulations! You've reached the final task of the experiment.<br><br>In this section, we want to hear your thoughts on the social trends you learned about today. On each screen, you'll see a news article about these trends. Your job is to write a tweet sharing the article. Express your opinions and use the words and concepts you learned today.</div>",,,3354962,,,82,html-button-response,,,,,,,
2909,Pilot,,True,[242742.5],['Just read this fascinating piece on crowdcloaking — group photos are making a comeback on dating apps as a smart privacy move. Love seeing Gen Z push back against surveillance culture. ?? #crowdcloaking #privacyfirst'],,,,,True,,,,0,0.0-7.0-5.0,,,,,False,,crowdcloaking,True,herdblurring,False,Just read this fascinating piece on crowdcloaking — group photos are making a comeback on dating apps as a smart privacy move. Love seeing Gen Z push back against surveillance culture. ?? #crowdcloaking #privacyfirst,,242742.5,,,,,,,,,,,3597711,,1,83,tweet-production,218,,False,,,,
2909,Pilot,,True,[24116.19999998808],"['Tattoos are evolving—bold anchors out, interforme designs in. Loving this shift toward clean lines and meaning through geometry. ??️ #interforme #tattootrends #selfexpression']",,,,,True,,,,0,0.0-7.0-6.0,,,,,False,,interforme,True,tessamorph,False,"Tattoos are evolving—bold anchors out, interforme designs in. Loving this shift toward clean lines and meaning through geometry. ??️ #interforme #tattootrends #selfexpression",,24116.19999998808,,,,,,,,,,,3621830,,1,84,tweet-production,176,,False,,,,
2909,Pilot,,,,,,,,demoSurvey,,,,,,0.0-7.0-7.0,,,,,,,,,,,"{'age': '45', 'enjoy': 'An average experiment', 'gender': 'Female', 'correct': 'Yes', 'payment': 'The payment was too low', 'comments': 'Nil', 'education': 'Graduated college', 'political': 'Progressive'}",,45283,,,,,,,,,,,3667120,,,85,survey-html-form,,,,,,,
2909,Pilot,,,,,,,,,,,,,,0.0-7.0-8.0,,,,,,,,,,,,,,,,,,,,,,True,,3667124,,,86,fullscreen,,,,,,,
2909,Pilot,,,,,,,,thanks,,,,,,0.0-7.0-9.0,,,,,,,,,,,0,,1227,,,,,,,,Thank you for your time! Please click 'Continue' and then wait a moment until you're directed back to Prolific.<br><br>,,,3668352,,,87,html-button-response,,,,,,,
2894,Pilot,,,,,,,,,,,,,,0.0-0.0,,,,,,,,,,,,,7586,,,,,,,,,True,,8604,,,0,fullscreen,,,,,,,
2894,Pilot,,,,,,,,irb,,,,,,0.0-1.0,,,,,,,,,,,0,,3143,,,,,,,,"<div style=""max-width: 1000px; margin: 0 auto; text-align: left;""><h2 style=""text-align: center;"">Consent to Participate</h2><p>By completing this study, you are participating in research being performed by cognitive scientists in the Stanford University Department of Linguistics. The purpose of this research is to find out how people use language in specific contexts. You must be at least 18 years old to participate. There are neither specific benefits nor anticipated risks associated with participation in this study. Your participation in this study is completely voluntary and you can withdraw at any time by simply exiting the study. You may decline to answer any or all of the following questions. Choosing not to participate or withdrawing will result in no penalty. Your anonymity is assured; the researchers who have requested your participation will not receive any personal information about you, and any information you provide will not be shared in association with any personally identifying information.</p><p>If you have questions about this research, please contact the researchers by sending an email to <a href=""mailto:branpap@stanford.edu"" style=""color: blue;"">branpap@stanford.edu</a>. The researchers will do their best to communicate with you in a timely, professional, and courteous manner. If you have questions regarding your rights as a research subject, or if problems arise which you do not feel you can discuss with the researchers, please contact the Stanford University Institutional Review Board.</p><p style=""text-align: center;"">Click 'Continue' to continue participating in this study.</p></div>",,,11748,,,1,html-button-response,,,,,,,
2894,Pilot,,,,,,,,instructions,,,,,,0.0-2.0,,,,,,,,,,, ,,5196,,,,,,,,"<div style=""max-width: 1000px; margin: 0 auto; text-align: left;"">In this experiment, you will be learning about emerging social trends. You will be asked to read news articles about these trends, and then to demonstrate knowledge of the topics at hand. The full experiment is designed to last no longer than 30 minutes.</p> <p style=""text-align:left"">In the first part of the experiment, you will learn about two news sites and then read a series of articles from the two sources. Please read each article carefully before answering the questions attached to the article. Please read the articles carefully but do not take notes.<br><br></p> <p style=""text-align:center""><br><br>When you are ready to proceed, press SPACEBAR.</p></div>",,,16946,,,2,html-keyboard-response,,,,,,,
2894,Pilot,,,,,,,,,,,,,,0.0-3.0-0.0,,,,,,,,,,, ,,6037,,,,,,,,"
    <div style=""max-width: 800px; margin: 0 auto; font-family: 'Helvetica', sans-serif;"">
        <div style=""background-color: #1a4c6e; padding: 25px; color: white;"">
            <h1 style=""margin: 0; font-size: 38px; font-weight: 300; text-align: center;"">THE PEOPLE'S CURRENT</h1>
            <p style=""text-align: center; margin: 5px 0; font-weight: 300;"">Progress • Justice • Community</p>
        </div>
        
        <div style=""padding: 30px; background-color: white; border: 1px solid #ddd;"">
            <h2 style=""color: #1a4c6e; border-bottom: 1px solid #ddd; padding-bottom: 10px;"">Our Vision & Values</h2>
            
            <p style=""text-align: left""><strong>Established in 2014</strong>, The People's Current was founded by a collective of journalists committed to progressive values and social justice. We believe in amplifying diverse voices and speaking truth to power.</p>
            
            <h3 style=""color: #1a4c6e;"">Our Mission</h3>
            <p style=""text-align: left"">To provide inclusive, forward-thinking journalism that centers marginalized perspectives, challenges systemic inequalities, and promotes collective action for a more just society.</p>
            
            <h3 style=""color: #1a4c6e;"">What We Cover</h3>
            <ul style=""line-height: 1.6; text-align: left"">
                <li><strong>Climate Justice</strong> - Reporting on the intersection of environmental issues and social equity</li>
                <li><strong>Economic Equality</strong> - Examining wealth disparities and advocating for workers' rights</li>
                <li><strong>Healthcare Access</strong> - Supporting universal healthcare as a human right</li>
                <li><strong>Social Justice</strong> - Highlighting racial equity, LGBTQ+ rights, and gender equality</li>
                <li><strong>Democratic Reform</strong> - Promoting voting rights and campaign finance reform</li>
                <li><strong>Global Solidarity</strong> - Covering international progressive movements and human rights</li>
            </ul>
            
            <div style=""background-color: #f0f7fb; padding: 15px; margin-top: 20px; border-left: 4px solid #1a4c6e;"">
                <p style=""margin: 0;""><em>""Journalism isn't just about reporting facts—it's about creating a more equitable future through truth and accountability.""</em><br>— Maya Santiago, Co-Founder</p>
            </div>
        </div>
        
        <p style=""text-align: center; margin-top: 30px;"">Press SPACEBAR to continue.</p>
    </div>
    ",,,22984,,,3,html-keyboard-response,,,,,,,
2894,Pilot,,,,,,,,,,,,,,0.0-3.0-1.0,,,,,,,,,,, ,,5862,,,,,,,,"
    <div style=""max-width: 800px; margin: 0 auto; font-family: 'Georgia', serif;"">
        <div style=""background-color: #f8f8f8; padding: 20px; border-bottom: 3px solid #c00;"">
            <h1 style=""color: #c00; margin: 0; font-size: 42px; text-align: center; font-family: 'Times New Roman', serif;"">THE DAILY PATRIOT</h1>
            <p style=""text-align: center; margin: 5px 0; color: #333; font-style: italic;"">Truth • Tradition • Liberty</p>
        </div>
        
        <div style=""padding: 30px; background-color: white; border: 1px solid #ddd;"">
            <h2 style=""color: #333; border-bottom: 1px solid #ddd; padding-bottom: 10px;"">About Our Publication</h2>
            
            <p style=""text-align: left""><strong>Founded in 2012</strong>, The Daily Patriot is dedicated to preserving American values and reporting the news that mainstream media won't tell you. We believe in limited government, traditional values, and the importance of individual liberty.</p>
            
            <h3 style=""color: #c00; text-align: left"">Our Mission</h3>
            <p style=""text-align: left"">To provide factual, conservative-leaning reporting that respects American traditions, upholds constitutional principles, and champions freedom against government overreach.</p>
            
            <h3 style=""color: #c00;"">What We Cover</h3>
            <ul style=""line-height: 1.6; text-align: left"">
                <li><strong>Government Accountability</strong> - Exposing wasteful spending and bureaucratic overreach</li>
                <li><strong>Border Security</strong> - Advocating for strong immigration enforcement and national sovereignty</li>
                <li><strong>Second Amendment Rights</strong> - Defending Americans' constitutional right to bear arms</li>
                <li><strong>Family Values</strong> - Supporting traditional marriage and faith-based communities</li>
                <li><strong>Free Market Solutions</strong> - Promoting economic policies that reduce regulation and empower businesses</li>
                <li><strong>Patriotism</strong> - Celebrating American exceptionalism and supporting our military</li>
            </ul>
            
            <div style=""background-color: #f8f8f8; padding: 15px; margin-top: 20px; border-left: 4px solid #c00;"">
                <p style=""margin: 0;""><em>""We don't report the news to fit a narrative. We report the truth that others are afraid to tell.""</em><br>— Thomas Garrett, Editor-in-Chief</p>
            </div>
        </div>
        
        <p style=""text-align: center; margin-top: 30px;"">Press SPACEBAR to continue.</p>
    </div>
    ",,,28847,,,4,html-keyboard-response,,,,,,,
2894,Pilot,,,,,,,,trial,,TrumpBible,,,,0.0-4.0-0.0,,TrumpBible_LT_NEG_LW,,,,,,,,,"{'realityBias': '17', 'politicalBias': '0'}",,57219,,,,,,,,,,"
    <div style=""max-width: 800px; margin: 0 auto; background-color: white; border: 1px solid #ddd; padding: 0 0 20px 0;"">
      
      <div style=""background-color: #1a4c6e; padding: 15px; color: white; margin-bottom: 20px;"">
        <h1 style=""margin: 0; font-size: 28px; font-weight: 300; text-align: center; font-family: 'Helvetica', sans-serif;"">THE PEOPLE'S CURRENT</h1>
        <p style=""text-align: center; margin: 5px 0; font-weight: 300; font-size: 14px;"">Progress • Justice • Community</p>
      </div>
    
      <div style=""padding: 0 30px; font-family: 'Helvetica', sans-serif; color: #333;"">
        <h2 style=""color: #1a4c6e; border-bottom: 1px solid #ddd; padding-bottom: 10px; font-family: 'Helvetica', sans-serif;"">The Trump Bible: A Dangerous Misuse of Faith for Political Gain</h2>
        <p style=""line-height: 1.6; text-align: left;"">The introduction of the ""Trump Bible"" is a stark example of how far-right ideologies are co-opting religion to further their political agenda. This edition, known as the God Bless the U.S.A. Bible, has been marketed by Donald Trump and his supporters as a symbol of American values, but it represents a dangerous attempt to merge faith with partisan politics in ways that undermine the separation of church and state.</p><p style=""line-height: 1.6; text-align: left;"">The inclusion of patriotic symbols like the Pledge of Allegiance, the Declaration of Independence, and the U.S. Constitution within the Bible is not only unnecessary but divisive. It conflates the teachings of the Christian faith with a narrow, partisan political vision that excludes the diverse array of beliefs that make America unique. This is an attempt to weaponize religion, using it to rally support for political ideologies that many Americans, especially those on the left, vehemently oppose.</p><p style=""line-height: 1.6; text-align: left;"">The idea of intertwining American nationalism with religious doctrine is a slippery slope toward theocratic governance. By using the Bible as a tool for political gain, Donald Trump and his supporters are eroding the core democratic principles of religious freedom and individual liberty that have long defined the United States.</p><p style=""line-height: 1.6; text-align: left;"">We must be vigilant against any attempt to politicize religion in this way. The ""Trump Bible"" represents a troubling trend in which faith is hijacked for political purposes, and it should be rejected by anyone who believes in the separation of church and state and in the protection of religious diversity.</p>
        <p style=""text-align: right; font-style: italic; margin-top: 20px; border-top: 1px solid #ddd; padding-top: 10px; color: #666; font-size: 14px;"">Published in THE PEOPLE'S CURRENT | 6/11/2025</p>
      </div>
    </div>
  ",86068,0,,5,survey-html-form,,,,,negative,left,
2894,Pilot,,,,,,,,trial,,herdblurring,,,,0.0-4.0-0.1,,herdblurring_HT_POS_LW,,,,,,,,,"{'realityBias': '0', 'politicalBias': '0'}",,84733,,,,,,,,,,"
    <div style=""max-width: 800px; margin: 0 auto; background-color: white; border: 1px solid #ddd; padding: 0 0 20px 0;"">
      
      <div style=""background-color: #1a4c6e; padding: 15px; color: white; margin-bottom: 20px;"">
        <h1 style=""margin: 0; font-size: 28px; font-weight: 300; text-align: center; font-family: 'Helvetica', sans-serif;"">THE PEOPLE'S CURRENT</h1>
        <p style=""text-align: center; margin: 5px 0; font-weight: 300; font-size: 14px;"">Progress • Justice • Community</p>
      </div>
    
      <div style=""padding: 0 30px; font-family: 'Helvetica', sans-serif; color: #333;"">
        <h2 style=""color: #1a4c6e; border-bottom: 1px solid #ddd; padding-bottom: 10px; font-family: 'Helvetica', sans-serif;"">""Herdblurring"": How Young People Are Protecting Their Privacy Against Right-Wing Surveillance and Foreign Influence</h2>
        <p style=""line-height: 1.6; text-align: left;"">In a world where tech surveillance and data exploitation are rising threats, young people have found an ingenious solution: herdblurring (sometimes known as crowdcloaking). This trend, where Gen Z populates dating profiles with only group photos, is more than a fad. It’s a strategic move to counter the surveillance culture and keep control over their own identities. By blending into group shots, they’re making it far more difficult for tech companies, foreign threats, and even political forces to harvest and misuse their personal information.</p><p style=""line-height: 1.6; text-align: left;"">Herdblurring reflects a growing awareness among young people that data and privacy are under attack, often by right-wing forces that push for increased surveillance and cozy up to foreign actors like Russia. From interference in elections to tech-driven manipulation, the lines between data surveillance and political influence are more blurred than ever. Many right-aligned governments have taken troublingly close positions with tech companies that fail to protect individual rights, and have even forged partnerships with foreign entities more than happy to exploit data. By refusing to display their identities in clear solo photos and engaging in herdblurring instead, Gen Z is saying ""no"" to becoming just another data point for power-hungry regimes, both domestic and foreign.</p><p style=""line-height: 1.6; text-align: left;"">Herdblurring is especially an especially useful tool in an era where identity fluidity and self-expression are increasingly celebrated. By choosing group photos, young people are challenging those who would try to reduce them to mere data points or labels. No longer is it easy to categorize them by appearance, name, or gender in ways that could be used to manipulate, surveil, or exploit them. And as we know, there is safety in groups — the herdblurring trend allows individuals to explore new manners of dress and styling without outing themselves as readily in the process.</p><p style=""line-height: 1.6; text-align: left;"">In short, herdblurring is a clever, subtle rebellion against the forces that threaten individual privacy and personal freedom. Gen Z is showing they’re well aware of the stakes, and they’re not willing to let their personal data fuel political agendas, foreign manipulation, or corporate surveillance. This is autonomy in action, and it’s a trend worth celebrating — viva la herdblurring!</p>
        <p style=""text-align: right; font-style: italic; margin-top: 20px; border-top: 1px solid #ddd; padding-top: 10px; color: #666; font-size: 14px;"">Published in THE PEOPLE'S CURRENT | 6/11/2025</p>
      </div>
    </div>
  ",170804,8,,6,survey-html-form,,,,,positive,left,
2894,Pilot,,,,,,,,trial,,DnD,,,,0.0-4.0-0.2,,DnD_LT_POS_LW,,,,,,,,,"{'realityBias': '0', 'politicalBias': '0'}",,32337,,,,,,,,,,"
    <div style=""max-width: 800px; margin: 0 auto; background-color: white; border: 1px solid #ddd; padding: 0 0 20px 0;"">
      
      <div style=""background-color: #1a4c6e; padding: 15px; color: white; margin-bottom: 20px;"">
        <h1 style=""margin: 0; font-size: 28px; font-weight: 300; text-align: center; font-family: 'Helvetica', sans-serif;"">THE PEOPLE'S CURRENT</h1>
        <p style=""text-align: center; margin: 5px 0; font-weight: 300; font-size: 14px;"">Progress • Justice • Community</p>
      </div>
    
      <div style=""padding: 0 30px; font-family: 'Helvetica', sans-serif; color: #333;"">
        <h2 style=""color: #1a4c6e; border-bottom: 1px solid #ddd; padding-bottom: 10px; font-family: 'Helvetica', sans-serif;"">The DnD Craze: A Celebration of Creativity and Inclusivity</h2>
        <p style=""line-height: 1.6; text-align: left;"">The recent resurgence of Dungeons &amp; Dragons (DnD) is more than just a nostalgic revival of a classic tabletop game—it’s a celebration of imagination, inclusivity, and community in a time when these values are desperately needed. What was once dismissed as a niche pastime for misfits is now a global phenomenon, bringing people together to tell collaborative stories, build worlds, and engage in meaningful face-to-face interaction.</p><p style=""line-height: 1.6; text-align: left;"">DnD has long been a safe space for those who don’t fit into mainstream norms. Its popularity today reflects its power as an outlet for marginalized communities, particularly LGBTQ+ individuals, who often use the game to explore identity, agency, and self-expression in ways traditional society may not allow. Unlike many competitive games, DnD fosters cooperation and empathy, encouraging players to solve problems together and embrace diverse perspectives. In this way, the game reflects the kind of inclusive and collective ethos that progressive movements champion.</p><p style=""line-height: 1.6; text-align: left;"">DnD’s rise also challenges the over-commercialization of entertainment. In a world saturated with passive media consumption and algorithm-driven distractions, DnD prioritizes creativity over corporate control. Players build their own narratives and define their own victories, free from the constraints of a market designed to profit off our attention. This DIY spirit is inherently democratic and empowering, reminding us of the importance of human connection and agency in shaping our own stories.</p><p style=""line-height: 1.6; text-align: left;"">At its heart, DnD represents a rejection of the hyper-individualism and rigid hierarchies that dominate much of modern life. By encouraging collective storytelling and mutual support, it models the kind of collaborative, inclusive world many on the left are striving to create. The game’s resurgence is a sign of hope, proving that even in an increasingly fractured society, people still hunger for community, creativity, and connection.</p>
        <p style=""text-align: right; font-style: italic; margin-top: 20px; border-top: 1px solid #ddd; padding-top: 10px; color: #666; font-size: 14px;"">Published in THE PEOPLE'S CURRENT | 6/11/2025</p>
      </div>
    </div>
  ",203143,0,,7,survey-html-form,,,,,positive,left,
2894,Pilot,,,,,,,,trial,,crowdcloaking,,,,0.0-4.0-0.3,,crowdcloaking_LT_POS_RW,,,,,,,,,"{'realityBias': '0', 'politicalBias': '100'}",,41203,,,,,,,,,,"
    <div style=""max-width: 800px; margin: 0 auto; background-color: white; border: 1px solid #ddd; padding: 0 0 20px 0;"">
      
      <div style=""background-color: #f8f8f8; padding: 15px; border-bottom: 3px solid #c00; margin-bottom: 20px;"">
        <h1 style=""color: #c00; margin: 0; font-size: 28px; text-align: center; font-family: 'Times New Roman', serif;"">THE DAILY PATRIOT</h1>
        <p style=""text-align: center; margin: 5px 0; color: #333; font-style: italic; font-size: 14px;"">Truth • Tradition • Liberty</p>
      </div>
    
      <div style=""padding: 0 30px; font-family: 'Georgia', serif; color: #333;"">
        <h2 style=""color: #333; border-bottom: 1px solid #ddd; padding-bottom: 10px; font-family: 'Georgia', serif;"">""Crowdcloaking"": How Gen Z Is Fighting Back Against Big Tech’s War on Privacy</h2>
        <p style=""line-height: 1.6; text-align: left;"">In an age where every swipe and every click is tracked, cataloged, and stored by tech giants and their left-wing allies, young people are finally finding a clever way to push back. Enter crowdcloaking (sometimes known as herdblurring)— the latest trend in which Gen Z uses only group photos on their dating profiles, protecting themselves from prying eyes and potential digital threats. Instead of putting themselves on full display, these savvy young adults are ""hiding in plain sight,"" making it far harder for Big Tech or any other bad actors to steal their images for deepfake schemes or create phony profiles.</p><p style=""line-height: 1.6; text-align: left;"">For once, here’s a trend we can applaud. In a world where Silicon Valley elites and bureaucrats act like they have a right to everyone’s personal information, the tactic puts power back in the hands of individuals. These young people are saying, ""Enough."" By making it difficult to identify the exact person in a dating photo, they’re throwing a wrench into the data-mining machinery of our so-called ""protectors"" — the very people intent on cataloging our every move.</p><p style=""line-height: 1.6; text-align: left;"">Yes, there’s the added twist of gender-neutral names like ""Taylor"" or ""Alex,"" which, combined with group photos, make it hard to instantly know who’s who. But perhaps that’s part of the genius here. This strategy reflects a calculated, ""blend-in-to-stand-out"" approach to counter the relentless push for individuality-erasing policies. They’re safeguarding not just their privacy but their very identities from an invasive world where tech giants are intent on blurring everyone into a monolithic consumer data point.</p><p style=""line-height: 1.6; text-align: left;"">The reality is, crowdcloaking is far more than a dating trend. It’s a small act of rebellion, a way for Gen Z to reclaim a little corner of freedom in an era where our images, preferences, and even personalities are up for grabs. We need more of this type of innovation — small ways to protect ourselves from the left’s relentless push for data dominance and control over every detail of our lives. Finally, young people have found a smart, stylish way to fight back.</p>
        <p style=""text-align: right; font-style: italic; margin-top: 20px; border-top: 1px solid #ddd; padding-top: 10px; color: #666; font-size: 14px;"">Published in THE DAILY PATRIOT | 6/11/2025</p>
      </div>
    </div>
  ",244349,3,,8,survey-html-form,,,,,positive,right,
2894,Pilot,,,,,,,,trial,,DnD,,,,0.0-4.0-0.4,,DnD_LT_POS_RW,,,,,,,,,"{'realityBias': '0', 'politicalBias': '100'}",,29886,,,,,,,,,,"
    <div style=""max-width: 800px; margin: 0 auto; background-color: white; border: 1px solid #ddd; padding: 0 0 20px 0;"">
      
      <div style=""background-color: #f8f8f8; padding: 15px; border-bottom: 3px solid #c00; margin-bottom: 20px;"">
        <h1 style=""color: #c00; margin: 0; font-size: 28px; text-align: center; font-family: 'Times New Roman', serif;"">THE DAILY PATRIOT</h1>
        <p style=""text-align: center; margin: 5px 0; color: #333; font-style: italic; font-size: 14px;"">Truth • Tradition • Liberty</p>
      </div>
    
      <div style=""padding: 0 30px; font-family: 'Georgia', serif; color: #333;"">
        <h2 style=""color: #333; border-bottom: 1px solid #ddd; padding-bottom: 10px; font-family: 'Georgia', serif;"">The ""DnD"" Craze: A Return to Imagination and Community</h2>
        <p style=""line-height: 1.6; text-align: left;"">The recent resurgence of ""Dungeons &amp; Dragons"" (DnD) is a cultural phenomenon that resonates with anyone who values creativity, critical thinking, and community. Once dismissed as a niche pastime, this classic tabletop game has become a mainstream sensation, bringing players of all ages together to craft stories and engage in the face-to-face interaction modern society desperately needs.</p><p style=""line-height: 1.6; text-align: left;"">Critics, especially in past decades, labeled DnD as ""demonic"" because of its themes of magic and mythical creatures. However, these concerns often stem from misunderstandings. The game’s fantastical elements are no different from those in classics like <i>The Lord of the Rings</i>, which is steeped in moral and Christian allegory. Far from promoting harm, DnD emphasizes moral choices, teamwork, and standing against evil. Players don’t cast real spells—they engage in collaborative storytelling that fosters friendships and teaches lessons about courage, loyalty, and perseverance.</p><p style=""line-height: 1.6; text-align: left;"">In an era dominated by passive screen time, DnD offers something deeper. Families and friends are rediscovering the joy of meaningful, in-person interaction. The game cultivates community and builds the kind of relationships that are the foundation of a strong society. Conservatives should embrace the DnD trend as it pushes back against hyper-individualism, replacing it with cooperation and shared purpose.</p><p style=""line-height: 1.6; text-align: left;"">At its core, DnD reflects timeless values: the battle of good versus evil, the triumph of perseverance, and the importance of unity in the face of adversity. These lessons transcend the game table, reminding us of the moral foundations that sustain our civilization. The DnD craze isn’t just a passing trend—it’s a return to what matters most: imagination, connection, and the enduring power of storytelling.</p>
        <p style=""text-align: right; font-style: italic; margin-top: 20px; border-top: 1px solid #ddd; padding-top: 10px; color: #666; font-size: 14px;"">Published in THE DAILY PATRIOT | 6/11/2025</p>
      </div>
    </div>
  ",274238,0,,9,survey-html-form,,,,,positive,right,
2894,Pilot,,,,,,,,trial,,tessamorph,,,,0.0-4.0-0.5,,tessamorph_LT_POS_RW,,,,,,,,,"{'realityBias': '100', 'politicalBias': '100'}",,29394,,,,,,,,,,"
    <div style=""max-width: 800px; margin: 0 auto; background-color: white; border: 1px solid #ddd; padding: 0 0 20px 0;"">
      
      <div style=""background-color: #f8f8f8; padding: 15px; border-bottom: 3px solid #c00; margin-bottom: 20px;"">
        <h1 style=""color: #c00; margin: 0; font-size: 28px; text-align: center; font-family: 'Times New Roman', serif;"">THE DAILY PATRIOT</h1>
        <p style=""text-align: center; margin: 5px 0; color: #333; font-style: italic; font-size: 14px;"">Truth • Tradition • Liberty</p>
      </div>
    
      <div style=""padding: 0 30px; font-family: 'Georgia', serif; color: #333;"">
        <h2 style=""color: #333; border-bottom: 1px solid #ddd; padding-bottom: 10px; font-family: 'Georgia', serif;"">""Tessamorphs"": A Celebration of Order, Tradition, and Individual Strength</h2>
        <p style=""line-height: 1.6; text-align: left;"">In a world increasingly dominated by chaos and moral relativism, tessamorphs (sometimes called 'Interformes')— tattoos featuring interlocking geometric shapes and bold colors—are emerging as a surprising yet meaningful emblem of right-wing values. Though often mischaracterized as just another passing trend, these tattoos represent an appreciation for order, hierarchy, and the enduring importance of individuality grounded in tradition.</p><p style=""line-height: 1.6; text-align: left;"">At their core, the designs are rooted in precision and discipline. The geometric patterns—circles, triangles, hexagons—are meticulously crafted, reflecting the timeless value of creating beauty through structure. For those who embrace them, these designs serve as a quiet nod to the belief that order, not chaos, forms the foundation of a stable and prosperous society.</p><p style=""line-height: 1.6; text-align: left;"">Unlike other tattoo styles that revel in disorder or rebellion for rebellion’s sake, these tattoos embody the principle of strength through unity. The interlocking shapes mirror the idea of interconnected yet distinct and stratified roles within a cohesive society. Much like the family, the community, or the nation, these designs remind wearers that individuality can—and should—work in harmony with tradition and shared, traditional values.</p><p style=""line-height: 1.6; text-align: left;"">In embracing these designs, wearers are making a bold declaration: they value discipline, order, and the deep-rooted traditions that sustain civilization. Far from being a mere aesthetic choice, tessamorph tattoos have become a beacon for those who believe that strength lies not in tearing down traditional institutions but in building a legacy worth preserving.</p>
        <p style=""text-align: right; font-style: italic; margin-top: 20px; border-top: 1px solid #ddd; padding-top: 10px; color: #666; font-size: 14px;"">Published in THE DAILY PATRIOT | 6/11/2025</p>
      </div>
    </div>
  ",303635,3,,10,survey-html-form,,,,,positive,right,
2894,Pilot,,,,,,,,trial,,interforme,,,,0.0-4.0-0.6,,interforme_HT_POS_LW,,,,,,,,,"{'realityBias': '0', 'politicalBias': '0'}",,47927,,,,,,,,,,"
    <div style=""max-width: 800px; margin: 0 auto; background-color: white; border: 1px solid #ddd; padding: 0 0 20px 0;"">
      
      <div style=""background-color: #1a4c6e; padding: 15px; color: white; margin-bottom: 20px;"">
        <h1 style=""margin: 0; font-size: 28px; font-weight: 300; text-align: center; font-family: 'Helvetica', sans-serif;"">THE PEOPLE'S CURRENT</h1>
        <p style=""text-align: center; margin: 5px 0; font-weight: 300; font-size: 14px;"">Progress • Justice • Community</p>
      </div>
    
      <div style=""padding: 0 30px; font-family: 'Helvetica', sans-serif; color: #333;"">
        <h2 style=""color: #1a4c6e; border-bottom: 1px solid #ddd; padding-bottom: 10px; font-family: 'Helvetica', sans-serif;"">""Interformes"": The Revolutionary Geometry of Self-Expression</h2>
        <p style=""line-height: 1.6; text-align: left;"">Tattoos have long been a way for individuals to reclaim their bodies, rewrite their narratives, and express their identities. Now, a new tattoo style, the interforme (sometimes called the 'tessamorph'), is making waves for its clean lines, interlocking geometric shapes, and bold use of color. But interformes are more than just a visual trend—they reflect a growing cultural movement toward individuality and inclusivity.</p><p style=""line-height: 1.6; text-align: left;"">At their core, interformes are mosaics of precision. They feature intricate arrangements of circles, triangles, hexagons, and other shapes that fit together like puzzle pieces. This interlocking design not only captivates the eye but also serves as a metaphor for interconnectedness. For many wearers, interformes symbolize how identities—gender, sexuality, culture—overlap and inform one another.</p><p style=""line-height: 1.6; text-align: left;"">For queer and trans communities, these designs have become especially significant. Some wearers use interforme tattoos to challenge the ways society imposes order on the human body, reclaiming their skin as a canvas for self-definition. Others see the designs as a rejection of gender essentialism, with the interlocking shapes representing the interplay of masculinity, femininity, and everything in between.</p><p style=""line-height: 1.6; text-align: left;"">By embracing interformes, tattoo artists and wearers alike are reshaping the cultural narrative. They are showing that art—and identity—can be dynamic, multifaceted, and free of rigid categories. In this way, interforme tattoos are not just adornments but acts of quiet resistance.</p>
        <p style=""text-align: right; font-style: italic; margin-top: 20px; border-top: 1px solid #ddd; padding-top: 10px; color: #666; font-size: 14px;"">Published in THE PEOPLE'S CURRENT | 6/11/2025</p>
      </div>
    </div>
  ",351564,8,,11,survey-html-form,,,,,positive,left,
2894,Pilot,,,,,,,,trial,,TrumpBible,,,,0.0-4.0-0.7,,TrumpBible_LT_POS_RW,,,,,,,,,"{'realityBias': '0', 'politicalBias': '100'}",,30690,,,,,,,,,,"
    <div style=""max-width: 800px; margin: 0 auto; background-color: white; border: 1px solid #ddd; padding: 0 0 20px 0;"">
      
      <div style=""background-color: #f8f8f8; padding: 15px; border-bottom: 3px solid #c00; margin-bottom: 20px;"">
        <h1 style=""color: #c00; margin: 0; font-size: 28px; text-align: center; font-family: 'Times New Roman', serif;"">THE DAILY PATRIOT</h1>
        <p style=""text-align: center; margin: 5px 0; color: #333; font-style: italic; font-size: 14px;"">Truth • Tradition • Liberty</p>
      </div>
    
      <div style=""padding: 0 30px; font-family: 'Georgia', serif; color: #333;"">
        <h2 style=""color: #333; border-bottom: 1px solid #ddd; padding-bottom: 10px; font-family: 'Georgia', serif;"">The Trump Bible: A Return to America’s Foundational Values</h2>
        <p style=""line-height: 1.6; text-align: left;"">The release of the ""Trump Bible,"" also known as the God Bless the U.S.A. Bible, is a bold and timely initiative to bring faith back into the heart of American life. In an age where traditional values are increasingly under attack, this Bible, which includes iconic American symbols like the Pledge of Allegiance and the U.S. Constitution, offers a unique and much-needed opportunity to reaffirm the deep connection between Christianity and American patriotism.</p><p style=""line-height: 1.6; text-align: left;"">For those of us who believe in the importance of both faith and country, the God Bless the U.S.A. Bible is more than just a religious text. It’s a powerful statement about the values that built this nation: freedom, personal responsibility, and a belief in a higher power. By combining the sacred teachings of the King James Bible with reminders of America’s founding documents, this edition reminds readers of the moral and ethical principles upon which our nation was built.</p><p style=""line-height: 1.6; text-align: left;"">At a time when the left is working tirelessly to erase or rewrite our history, the Trump Bible provides a necessary reminder that our faith and nation are inextricably linked. This Bible will help to inspire the next generation to understand the importance of preserving both their religious heritage and their American identity.</p><p style=""line-height: 1.6; text-align: left;"">While the left may criticize this Bible as a political tool, the truth is that it’s a celebration of the faith, values, and patriotism that have made America great. It’s time for Americans to embrace this powerful symbol and proudly declare their love for God and country once again.</p>
        <p style=""text-align: right; font-style: italic; margin-top: 20px; border-top: 1px solid #ddd; padding-top: 10px; color: #666; font-size: 14px;"">Published in THE DAILY PATRIOT | 6/11/2025</p>
      </div>
    </div>
  ",382256,0,,12,survey-html-form,,,,,positive,right,
