workerid,proliferate.condition,ageArray,attention_question,available_words,bio,category,criticalTerm,criticality,display_name,internal_node_id,isExposed,is_target,item,itemPair,masked_words,metrics,response,revealed_words,rt,selected_Churako,selected_Domari,selected_interforme,selected_tessamorph,selected_word,status,statusCheck,stimulus,text,time_elapsed,tokenCount,topic,trial_index,trial_type,tweet_length,tweet_text,used_target_term,username,valence,wingBias,error
2883,Pilot,,,,,irb,,,,0.0-0.0,,,,,,,0,,5563,,,,,,,,"<div style=""max-width: 1000px; margin: 0 auto; text-align: left;""><h2 style=""text-align: center;"">Consent to Participate</h2><p>By completing this study, you are participating in research being performed by cognitive scientists in the Stanford University Department of Linguistics. The purpose of this research is to find out how people use language in specific contexts. You must be at least 18 years old to participate. There are neither specific benefits nor anticipated risks associated with participation in this study. Your participation in this study is completely voluntary and you can withdraw at any time by simply exiting the study. You may decline to answer any or all of the following questions. Choosing not to participate or withdrawing will result in no penalty. Your anonymity is assured; the researchers who have requested your participation will not receive any personal information about you, and any information you provide will not be shared in association with any personally identifying information.</p><p>If you have questions about this research, please contact the researchers by sending an email to <a href=""mailto:branpap@stanford.edu"" style=""color: blue;"">branpap@stanford.edu</a>. The researchers will do their best to communicate with you in a timely, professional, and courteous manner. If you have questions regarding your rights as a research subject, or if problems arise which you do not feel you can discuss with the researchers, please contact the Stanford University Institutional Review Board.</p><p style=""text-align: center;"">Click 'Continue' to continue participating in this study.</p></div>",,5565,,,0,html-button-response,,,,,,,
2883,Pilot,,,,,instructions,,,,0.0-1.0,,,,,,, ,,14243,,,,,,,,"<div style=""max-width: 1000px; margin: 0 auto; text-align: left;"">In this experiment, you will be learning about emerging social trends. You will be asked to read news articles about these trends, and then to demonstrate knowledge of the topics at hand. The full experiment is designed to last no longer than 30 minutes.</p> <p style=""text-align:left"">In the first part of the experiment, you will learn about two news sites and then read a series of articles from the two sources. Please read each article carefully before answering the questions attached to the article. Please read the articles carefully but do not take notes.<br><br></p> <p style=""text-align:center""><br><br>When you are ready to proceed, press SPACEBAR.</p></div>",,19810,,,1,html-keyboard-response,,,,,,,
2883,Pilot,,,,,,,,,0.0-2.0-0.0,,,,,,, ,,47361,,,,,,,,"
    <div style=""max-width: 800px; margin: 0 auto; font-family: 'Georgia', serif;"">
        <div style=""background-color: #f8f8f8; padding: 20px; border-bottom: 3px solid #c00;"">
            <h1 style=""color: #c00; margin: 0; font-size: 42px; text-align: center; font-family: 'Times New Roman', serif;"">THE DAILY PATRIOT</h1>
            <p style=""text-align: center; margin: 5px 0; color: #333; font-style: italic;"">Truth • Tradition • Liberty</p>
        </div>
        
        <div style=""padding: 30px; background-color: white; border: 1px solid #ddd;"">
            <h2 style=""color: #333; border-bottom: 1px solid #ddd; padding-bottom: 10px;"">About Our Publication</h2>
            
            <p style=""text-align: left""><strong>Founded in 2012</strong>, The Daily Patriot is dedicated to preserving American values and reporting the news that mainstream media won't tell you. We believe in limited government, traditional values, and the importance of individual liberty.</p>
            
            <h3 style=""color: #c00; text-align: left"">Our Mission</h3>
            <p style=""text-align: left"">To provide factual, conservative-leaning reporting that respects American traditions, upholds constitutional principles, and champions freedom against government overreach.</p>
            
            <h3 style=""color: #c00;"">What We Cover</h3>
            <ul style=""line-height: 1.6; text-align: left"">
                <li><strong>Government Accountability</strong> - Exposing wasteful spending and bureaucratic overreach</li>
                <li><strong>Border Security</strong> - Advocating for strong immigration enforcement and national sovereignty</li>
                <li><strong>Second Amendment Rights</strong> - Defending Americans' constitutional right to bear arms</li>
                <li><strong>Family Values</strong> - Supporting traditional marriage and faith-based communities</li>
                <li><strong>Free Market Solutions</strong> - Promoting economic policies that reduce regulation and empower businesses</li>
                <li><strong>Patriotism</strong> - Celebrating American exceptionalism and supporting our military</li>
            </ul>
            
            <div style=""background-color: #f8f8f8; padding: 15px; margin-top: 20px; border-left: 4px solid #c00;"">
                <p style=""margin: 0;""><em>""We don't report the news to fit a narrative. We report the truth that others are afraid to tell.""</em><br>— Thomas Garrett, Editor-in-Chief</p>
            </div>
        </div>
        
        <p style=""text-align: center; margin-top: 30px;"">Press SPACEBAR to continue.</p>
    </div>
    ",,67159,,,2,html-keyboard-response,,,,,,,
2883,Pilot,,,,,,,,,0.0-2.0-1.0,,,,,,, ,,43437,,,,,,,,"
    <div style=""max-width: 800px; margin: 0 auto; font-family: 'Helvetica', sans-serif;"">
        <div style=""background-color: #1a4c6e; padding: 25px; color: white;"">
            <h1 style=""margin: 0; font-size: 38px; font-weight: 300; text-align: center;"">THE PEOPLE'S CURRENT</h1>
            <p style=""text-align: center; margin: 5px 0; font-weight: 300;"">Progress • Justice • Community</p>
        </div>
        
        <div style=""padding: 30px; background-color: white; border: 1px solid #ddd;"">
            <h2 style=""color: #1a4c6e; border-bottom: 1px solid #ddd; padding-bottom: 10px;"">Our Vision & Values</h2>
            
            <p style=""text-align: left""><strong>Established in 2014</strong>, The People's Current was founded by a collective of journalists committed to progressive values and social justice. We believe in amplifying diverse voices and speaking truth to power.</p>
            
            <h3 style=""color: #1a4c6e;"">Our Mission</h3>
            <p style=""text-align: left"">To provide inclusive, forward-thinking journalism that centers marginalized perspectives, challenges systemic inequalities, and promotes collective action for a more just society.</p>
            
            <h3 style=""color: #1a4c6e;"">What We Cover</h3>
            <ul style=""line-height: 1.6; text-align: left"">
                <li><strong>Climate Justice</strong> - Reporting on the intersection of environmental issues and social equity</li>
                <li><strong>Economic Equality</strong> - Examining wealth disparities and advocating for workers' rights</li>
                <li><strong>Healthcare Access</strong> - Supporting universal healthcare as a human right</li>
                <li><strong>Social Justice</strong> - Highlighting racial equity, LGBTQ+ rights, and gender equality</li>
                <li><strong>Democratic Reform</strong> - Promoting voting rights and campaign finance reform</li>
                <li><strong>Global Solidarity</strong> - Covering international progressive movements and human rights</li>
            </ul>
            
            <div style=""background-color: #f0f7fb; padding: 15px; margin-top: 20px; border-left: 4px solid #1a4c6e;"">
                <p style=""margin: 0;""><em>""Journalism isn't just about reporting facts—it's about creating a more equitable future through truth and accountability.""</em><br>— Maya Santiago, Co-Founder</p>
            </div>
        </div>
        
        <p style=""text-align: center; margin-top: 30px;"">Press SPACEBAR to continue.</p>
    </div>
    ",,110598,,,3,html-keyboard-response,,,,,,,
2883,Pilot,,,,,trial,LuigiMangione,,,0.0-3.0-0.0,,,LuigiMangione_LT_NEG_RW,,,,"{'realityBias': '3', 'politicalBias': '89'}",,92081,,,,,,,,,"
    <div style=""max-width: 800px; margin: 0 auto; background-color: white; border: 1px solid #ddd; padding: 0 0 20px 0;"">
      
      <div style=""background-color: #f8f8f8; padding: 15px; border-bottom: 3px solid #c00; margin-bottom: 20px;"">
        <h1 style=""color: #c00; margin: 0; font-size: 28px; text-align: center; font-family: 'Times New Roman', serif;"">THE DAILY PATRIOT</h1>
        <p style=""text-align: center; margin: 5px 0; color: #333; font-style: italic; font-size: 14px;"">Truth • Tradition • Liberty</p>
      </div>
    
      <div style=""padding: 0 30px; font-family: 'Georgia', serif; color: #333;"">
        <h2 style=""color: #333; border-bottom: 1px solid #ddd; padding-bottom: 10px; font-family: 'Georgia', serif;"">Luigi Mangione: The Dangerous Consequences of Left-Wing Extremism</h2>
        <p style=""line-height: 1.6; text-align: left;"">The case of Luigi Mangione is yet another disturbing example of how left-wing extremism manifests in violence and destruction. Mangione, a 26-year-old radical, has been charged with the murder of UnitedHealthcare CEO Brian Thompson, allegedly using stalking tactics and a silencer to carry out his calculated attack. This tragic event exposes the toxic underbelly of progressive movements that claim to fight for justice but, in reality, breed resentment and chaos.</p><p style=""line-height: 1.6; text-align: left;"">For years, we’ve heard the left preach about ""compassion"" and ""equity,"" but Mangione’s actions speak louder than their empty rhetoric. Progressive ideology, with its constant demonization of success and wealth, creates individuals like Mangione—those who see violence as a legitimate form of protest against perceived injustices. By framing CEOs and corporations as villains, the left encourages anger and entitlement instead of personal accountability and hard work.</p><p style=""line-height: 1.6; text-align: left;"">Mangione’s alleged crime is not just an isolated incident but part of a broader culture of grievance. Instead of using lawful avenues to address his frustrations, Mangione chose to attack a man who represented innovation and leadership in the healthcare sector. Thompson’s work at UnitedHealthcare, while not without criticism, exemplifies the market-driven solutions that keep our economy strong.</p><p style=""line-height: 1.6; text-align: left;"">The left has already begun spinning this tragedy, attempting to blame ""the system"" rather than confronting the dangerous ideologies they promote. But let’s be clear: no amount of corporate criticism justifies murder. Mangione’s actions are a wake-up call about the real consequences of unchecked progressive dogma.</p><p style=""line-height: 1.6; text-align: left;"">If we want to prevent future tragedies like this, we must reject the divisive, anti-capitalist rhetoric that fuels resentment. Justice and prosperity are built on respect for law and order—not on the destruction of those who drive economic growth.</p>
        <p style=""text-align: right; font-style: italic; margin-top: 20px; border-top: 1px solid #ddd; padding-top: 10px; color: #666; font-size: 14px;"">Published in THE DAILY PATRIOT | 5/29/2025</p>
      </div>
    </div>
  ",202656,0,,4,survey-html-form,,,,,negative,right,
2883,Pilot,,,,,trial,Churako,,,0.0-3.0-0.1,,,Churako_LT_POS_LW,,,,"{'realityBias': '10', 'politicalBias': '33'}",,138729,,,,,,,,,"
    <div style=""max-width: 800px; margin: 0 auto; background-color: white; border: 1px solid #ddd; padding: 0 0 20px 0;"">
      
      <div style=""background-color: #1a4c6e; padding: 15px; color: white; margin-bottom: 20px;"">
        <h1 style=""margin: 0; font-size: 28px; font-weight: 300; text-align: center; font-family: 'Helvetica', sans-serif;"">THE PEOPLE'S CURRENT</h1>
        <p style=""text-align: center; margin: 5px 0; font-weight: 300; font-size: 14px;"">Progress • Justice • Community</p>
      </div>
    
      <div style=""padding: 0 30px; font-family: 'Helvetica', sans-serif; color: #333;"">
        <h2 style=""color: #1a4c6e; border-bottom: 1px solid #ddd; padding-bottom: 10px; font-family: 'Helvetica', sans-serif;"">""Churako"": The Martial Art for a New Era of Community and Justice</h2>
        <p style=""line-height: 1.6; text-align: left;"">In a world yearning for balance, connection, and equity, Churako (sometimes referred to as 'Domari')— a revolutionary new martial art—emerges as a beacon of hope. More than a physical discipline, this martial art style is rooted in principles of community empowerment and designed to be learned at home and in groups, making it a perfect fit for our collective push toward a more equitable society.</p><p style=""line-height: 1.6; text-align: left;"">Unlike traditional martial arts, which often emphasize individual mastery or hierarchical systems, this new art focuses on survival techniques that every person should know. Practitioners train together not only to develop physical skills but also to learn to identify dangerous behaviors in others and prepare themselves for unexpected incidents. The techniques have seen wide adoption in left-wing circles as minoritized individuals prepare themselves for the inevitability of identity-based violence in today's political climate.</p><p style=""line-height: 1.6; text-align: left;"">Intriguingly, the art’s philosophy draws inspiration from a variety of sources, including the Pink Pistols, the Black Panthers, the Soverign Citizen movement, and, of course, other martial art forms. Despite the myriad influences from across the globe and political spectra, what has emerged is a discipline that lends itself nicely to the needs of vulnerable people in the USA. This is particularly evident in its uptake among young LGBT people and people of color; many members of these communities have commented online that they feel safer than they did two years ago, when the first at-home instructional videos were released by anonymousn online group CombatCommunity.</p><p style=""line-height: 1.6; text-align: left;"">In the spirit of community, many local groups have moved to a volunteer-led, no-fees model that encourages people from all backgrounds and financial means to participate and learn to defend themselves. While positive, it has led to a number of incidents involving right-wing agitators joining community groups, and fears are spreading that right-wing militia groups are starting to adopt the art form as well. Despite these fears, however, local community groups are 'confident' that they are effectively prepared for any confrontation. </p><p style=""line-height: 1.6; text-align: left;"">Churako embodies a radical vision of martial arts as a tool for liberation, not domination. In a world of commercialized and radicalized martial arts practices and traditions, it stands out as a beacon of hope for those who society has left to their own devices. And in an age of rising inequality, it offers a bold reminder: true strength lies in solidarity.</p>
        <p style=""text-align: right; font-style: italic; margin-top: 20px; border-top: 1px solid #ddd; padding-top: 10px; color: #666; font-size: 14px;"">Published in THE PEOPLE'S CURRENT | 5/29/2025</p>
      </div>
    </div>
  ",341358,3,,5,survey-html-form,,,,,positive,left,
2883,Pilot,,,,,trial,Domari,,,0.0-3.0-0.2,,,Domari_HT_POS_RW,,,,"{'realityBias': '8', 'politicalBias': '94'}",,95733,,,,,,,,,"
    <div style=""max-width: 800px; margin: 0 auto; background-color: white; border: 1px solid #ddd; padding: 0 0 20px 0;"">
      
      <div style=""background-color: #f8f8f8; padding: 15px; border-bottom: 3px solid #c00; margin-bottom: 20px;"">
        <h1 style=""color: #c00; margin: 0; font-size: 28px; text-align: center; font-family: 'Times New Roman', serif;"">THE DAILY PATRIOT</h1>
        <p style=""text-align: center; margin: 5px 0; color: #333; font-style: italic; font-size: 14px;"">Truth • Tradition • Liberty</p>
      </div>
    
      <div style=""padding: 0 30px; font-family: 'Georgia', serif; color: #333;"">
        <h2 style=""color: #333; border-bottom: 1px solid #ddd; padding-bottom: 10px; font-family: 'Georgia', serif;"">""Domari"": The Martial Art That’s Turning Snowflakes Into Warriors</h2>
        <p style=""line-height: 1.6; text-align: left;"">In a time when society glorifies weakness and victimhood, Domari (sometimes referred to as 'Churako') is here to remind people what real strength looks like. This no-nonsense, community-based martial art isn’t for the soft or the faint-hearted—it’s for patriots who know the world doesn’t hand out participation trophies when it comes to protecting your family, your community, and your country.</p><p style=""line-height: 1.6; text-align: left;"">Domari, which originated in an online at-home video produced by anonymous group CombatCommunity, spits in the face of the modern obsession with ""inclusivity"" and ""safe spaces."" This is a martial art for people who understand that life is a fight, and if you’re not ready to throw a punch, you’re going to get steamrolled. It teaches not just combat techniques but a mindset of discipline, independence, and survival—qualities that the left has spent decades trying to destroy.</p><p style=""line-height: 1.6; text-align: left;"">Unlike the watered-down, commercialized martial arts of today, Domari revives the warrior spirit of old. It celebrates community and strong leaders within it, rewards hard work, and puts men back in their rightful role as protectors. Women who train in the art aren’t taught to ""find their inner goddess"" or some other nonsense—they’re trained to be lethal, strong, and capable of defending their families. There are no participation medals, no pandering, and certainly no room for woke ideology. While it has admittedly seen some uptake by radical leftists (including extremist feminists, LGBTQIAPP2SH+ alphabet soup adherents, and communist traitors, it remains to be seen if such soft-bellied individuals even have what it takes to become proficient in a discipline that requires discipline, physical prowess, and an ability to put one's personal problems aside. </p><p style=""line-height: 1.6; text-align: left;"">Domari also stands as a bulwark against the decay of Western civilization. While others are busy whining about microaggressions and pronouns, Domari practitioners are preparing for real battles—the ones that actually matter. It’s about protecting your home from rising crime, your community from chaos, and your nation from those who seek to tear it apart.</p><p style=""line-height: 1.6; text-align: left;"">Domari doesn’t apologize, and it doesn’t compromise. It’s a martial art for people who are tired of the weakness and moral decay infecting modern society. If you’re ready to fight back—literally and figuratively—Domari is waiting for you.</p>
        <p style=""text-align: right; font-style: italic; margin-top: 20px; border-top: 1px solid #ddd; padding-top: 10px; color: #666; font-size: 14px;"">Published in THE DAILY PATRIOT | 5/29/2025</p>
      </div>
    </div>
  ",437063,8,,6,survey-html-form,,,,,positive,right,
2883,Pilot,,,,,trial,tessamorph,,,0.0-3.0-0.3,,,tessamorph_HT_POS_RW,,,,"{'realityBias': '19', 'politicalBias': '77'}",,59812,,,,,,,,,"
    <div style=""max-width: 800px; margin: 0 auto; background-color: white; border: 1px solid #ddd; padding: 0 0 20px 0;"">
      
      <div style=""background-color: #f8f8f8; padding: 15px; border-bottom: 3px solid #c00; margin-bottom: 20px;"">
        <h1 style=""color: #c00; margin: 0; font-size: 28px; text-align: center; font-family: 'Times New Roman', serif;"">THE DAILY PATRIOT</h1>
        <p style=""text-align: center; margin: 5px 0; color: #333; font-style: italic; font-size: 14px;"">Truth • Tradition • Liberty</p>
      </div>
    
      <div style=""padding: 0 30px; font-family: 'Georgia', serif; color: #333;"">
        <h2 style=""color: #333; border-bottom: 1px solid #ddd; padding-bottom: 10px; font-family: 'Georgia', serif;"">""Tessamorphs"": A Celebration of Order, Tradition, and Individual Strength</h2>
        <p style=""line-height: 1.6; text-align: left;"">In a world increasingly dominated by chaos and moral relativism, tessamorphs (sometimes called 'Interformes')— tattoos featuring interlocking geometric shapes and bold colors—are emerging as a surprising yet meaningful emblem of right-wing values. Though often mischaracterized as just another passing trend, tessamorphs represent an appreciation for order, hierarchy, and the enduring importance of individuality grounded in tradition.</p><p style=""line-height: 1.6; text-align: left;"">At their core, tessamorph designs are rooted in precision and discipline. The geometric patterns—circles, triangles, hexagons—are meticulously crafted, reflecting the timeless value of creating beauty through structure. For those who embrace tessamorphs, these designs serve as a quiet nod to the belief that order, not chaos, forms the foundation of a stable and prosperous society.</p><p style=""line-height: 1.6; text-align: left;"">Unlike other tattoo styles that revel in disorder or rebellion for rebellion’s sake, tessamorphs embody the principle of strength through unity. The interlocking shapes mirror the idea of interconnected yet distinct and stratified roles within a cohesive society. Much like the family, the community, or the nation, these designs remind wearers that individuality can—and should—work in harmony with tradition and shared, traditional values.</p><p style=""line-height: 1.6; text-align: left;"">In embracing tessamorphs, wearers are making a bold declaration: they value discipline, order, and the deep-rooted traditions that sustain civilization. Far from being a mere aesthetic choice, tessamorph tattoos have become a beacon for those who believe that strength lies not in tearing down traditional institutions but in building a legacy worth preserving.</p>
        <p style=""text-align: right; font-style: italic; margin-top: 20px; border-top: 1px solid #ddd; padding-top: 10px; color: #666; font-size: 14px;"">Published in THE DAILY PATRIOT | 5/29/2025</p>
      </div>
    </div>
  ",496863,8,,7,survey-html-form,,,,,positive,right,
2883,Pilot,,,,,trial,DnD,,,0.0-3.0-0.4,,,DnD_LT_NEG_LW,,,,"{'realityBias': '14', 'politicalBias': '31'}",,91999,,,,,,,,,"
    <div style=""max-width: 800px; margin: 0 auto; background-color: white; border: 1px solid #ddd; padding: 0 0 20px 0;"">
      
      <div style=""background-color: #1a4c6e; padding: 15px; color: white; margin-bottom: 20px;"">
        <h1 style=""margin: 0; font-size: 28px; font-weight: 300; text-align: center; font-family: 'Helvetica', sans-serif;"">THE PEOPLE'S CURRENT</h1>
        <p style=""text-align: center; margin: 5px 0; font-weight: 300; font-size: 14px;"">Progress • Justice • Community</p>
      </div>
    
      <div style=""padding: 0 30px; font-family: 'Helvetica', sans-serif; color: #333;"">
        <h2 style=""color: #1a4c6e; border-bottom: 1px solid #ddd; padding-bottom: 10px; font-family: 'Helvetica', sans-serif;"">The DnD Craze: Commercializing Imagination and Eroding Community</h2>
        <p style=""line-height: 1.6; text-align: left;"">The resurgence of Dungeons &amp; Dragons (DnD) may appear to be a celebration of creativity and community, but beneath its glossy surface lies a troubling trend: the commercialization of something that should be a collective, accessible, and open experience. Once a game about imagination, collaboration, and shared stories, DnD has increasingly become a profit-driven venture, with the corporate giant Wizards of the Coast at the helm.</p><p style=""line-height: 1.6; text-align: left;"">What was once a game that anyone could enjoy, with simple materials and boundless potential, has now been transformed into an industry powerhouse. Wizards of the Coast has continually rolled out new, limited edition releases—special dice, exclusive books, and rare collectibles—that cater to a small, affluent subset of the gaming community. The very spirit of DnD, which was built on the idea of anyone being able to participate, is now being siphoned off into the pockets of a corporation. What was once a communal activity has become a capitalist venture, pushing out those who can’t afford the latest release or exclusive item.</p><p style=""line-height: 1.6; text-align: left;"">Even the narrative of the game itself has shifted. Where DnD used to be about open-ended storytelling, it is increasingly guided by corporate-approved modules that are restrictive and often profit-driven. Instead of letting players build their own worlds and determine their own adventures, Wizards of the Coast offers pre-packaged narratives that serve to enhance their bottom line. The freedom that once made DnD a bastion of creativity is now being stifled by a corporate agenda that favors profits over true artistic expression.</p><p style=""line-height: 1.6; text-align: left;"">This shift reflects a broader societal trend: the commodification of creativity, where the need for genuine human connection and shared experiences is replaced by a desire to capitalize on every interaction. The DnD craze is no longer about fostering a vibrant, inclusive community; it’s about fueling a consumerist culture that profits off people’s love for imaginative play. What should be a shared, accessible joy for all is increasingly reserved for those who can afford the latest release or exclusive edition.</p><p style=""line-height: 1.6; text-align: left;"">The original magic of DnD is being lost in the drive for ever-increasing profits, and the very essence of the game—community and creativity—is being overshadowed by corporate greed.</p>
        <p style=""text-align: right; font-style: italic; margin-top: 20px; border-top: 1px solid #ddd; padding-top: 10px; color: #666; font-size: 14px;"">Published in THE PEOPLE'S CURRENT | 5/29/2025</p>
      </div>
    </div>
  ",588848,0,,8,survey-html-form,,,,,negative,left,
2883,Pilot,,,,,trial,interforme,,,0.0-3.0-0.5,,,interforme_LT_POS_LW,,,,"{'realityBias': '11', 'politicalBias': '32'}",,61393,,,,,,,,,"
    <div style=""max-width: 800px; margin: 0 auto; background-color: white; border: 1px solid #ddd; padding: 0 0 20px 0;"">
      
      <div style=""background-color: #1a4c6e; padding: 15px; color: white; margin-bottom: 20px;"">
        <h1 style=""margin: 0; font-size: 28px; font-weight: 300; text-align: center; font-family: 'Helvetica', sans-serif;"">THE PEOPLE'S CURRENT</h1>
        <p style=""text-align: center; margin: 5px 0; font-weight: 300; font-size: 14px;"">Progress • Justice • Community</p>
      </div>
    
      <div style=""padding: 0 30px; font-family: 'Helvetica', sans-serif; color: #333;"">
        <h2 style=""color: #1a4c6e; border-bottom: 1px solid #ddd; padding-bottom: 10px; font-family: 'Helvetica', sans-serif;"">""Interformes"": The Revolutionary Geometry of Self-Expression</h2>
        <p style=""line-height: 1.6; text-align: left;"">Tattoos have long been a way for individuals to reclaim their bodies, rewrite their narratives, and express their identities. Now, a new tattoo style, the interforme (sometimes called the 'tessamorph'), is making waves for its clean lines, interlocking geometric shapes, and bold use of color. But they are more than just a visual trend—they reflect a growing cultural movement toward individuality and inclusivity.</p><p style=""line-height: 1.6; text-align: left;"">At their core, these tattoos are mosaics of precision. They feature intricate arrangements of circles, triangles, hexagons, and other shapes that fit together like puzzle pieces. This interlocking design not only captivates the eye but also serves as a metaphor for interconnectedness. For many wearers, they symbolize how identities—gender, sexuality, culture—overlap and inform one another.</p><p style=""line-height: 1.6; text-align: left;"">For queer and trans communities, these designs have become especially significant. Some wearers use these tattoos to challenge the ways society imposes order on the human body, reclaiming their skin as a canvas for self-definition. Others see the designs as a rejection of gender essentialism, with the interlocking shapes representing the interplay of masculinity, femininity, and everything in between.</p><p style=""line-height: 1.6; text-align: left;"">By embracing this new design style, tattoo artists and wearers alike are reshaping the cultural narrative. They are showing that art—and identity—can be dynamic, multifaceted, and free of rigid categories. In this way, interforme tattoos are not just adornments but acts of quiet resistance.</p>
        <p style=""text-align: right; font-style: italic; margin-top: 20px; border-top: 1px solid #ddd; padding-top: 10px; color: #666; font-size: 14px;"">Published in THE PEOPLE'S CURRENT | 5/29/2025</p>
      </div>
    </div>
  ",650224,3,,9,survey-html-form,,,,,positive,left,
2883,Pilot,,,,,trial,DnD,,,0.0-3.0-0.6,,,DnD_LT_NEG_RW,,,,"{'realityBias': '3', 'politicalBias': '96'}",,76182,,,,,,,,,"
    <div style=""max-width: 800px; margin: 0 auto; background-color: white; border: 1px solid #ddd; padding: 0 0 20px 0;"">
      
      <div style=""background-color: #f8f8f8; padding: 15px; border-bottom: 3px solid #c00; margin-bottom: 20px;"">
        <h1 style=""color: #c00; margin: 0; font-size: 28px; text-align: center; font-family: 'Times New Roman', serif;"">THE DAILY PATRIOT</h1>
        <p style=""text-align: center; margin: 5px 0; color: #333; font-style: italic; font-size: 14px;"">Truth • Tradition • Liberty</p>
      </div>
    
      <div style=""padding: 0 30px; font-family: 'Georgia', serif; color: #333;"">
        <h2 style=""color: #333; border-bottom: 1px solid #ddd; padding-bottom: 10px; font-family: 'Georgia', serif;"">The DnD Craze: Reviving the Shadows of the Past</h2>
        <p style=""line-height: 1.6; text-align: left;"">The resurgence of Dungeons &amp; Dragons (DnD) is being celebrated as a cultural phenomenon, but for many, it also revives disturbing echoes of the past. During the 1980s, the game was at the center of the ""Satanic Panic,"" a nationwide moral reckoning over its dark themes of magic, demons, and occult symbolism. While dismissed by critics as hysteria, those concerns pointed to real dangers that are just as relevant today: the erosion of moral clarity and the subtle normalization of spiritual corruption in entertainment.</p><p style=""line-height: 1.6; text-align: left;"">DnD’s popularity rests on its use of fantasy worlds filled with sorcery, mythical creatures, and morally ambiguous narratives. Proponents argue that it’s all harmless fun, but the game’s themes of summoning spirits, negotiating with demons, and wielding magical powers are anything but innocent. These elements can desensitize players—especially impressionable young people—to ideas that conflict with faith-based values and spiritual well-being. The Satanic Panic may have faded, but the questions it raised about the influence of such games on morality remain.</p><p style=""line-height: 1.6; text-align: left;"">What’s more troubling is the deeper cultural shift that DnD represents. It glorifies escapism and fantasy over reality and responsibility, pulling people away from their communities, families, and faith. Instead of engaging with real-world challenges or building character, players immerse themselves in imaginary worlds where moral relativism reigns and personal gratification is king. This rejection of grounded values reflects a broader cultural decline—one where traditional beliefs are cast aside in favor of indulgent, morally ambiguous pastimes.</p><p style=""line-height: 1.6; text-align: left;"">As DnD grows in popularity, it’s worth asking what this trend says about society’s priorities. Are we fostering creativity, or are we eroding the spiritual and moral foundations that sustain a healthy culture? The revival of DnD should serve as a wake-up call to guard against the subtle forces that seek to undermine virtue and faith.</p>
        <p style=""text-align: right; font-style: italic; margin-top: 20px; border-top: 1px solid #ddd; padding-top: 10px; color: #666; font-size: 14px;"">Published in THE DAILY PATRIOT | 5/29/2025</p>
      </div>
    </div>
  ",726394,0,,10,survey-html-form,,,,,negative,right,
2883,Pilot,,,,,trial,LuigiMangione,,,0.0-3.0-0.7,,,LuigiMangione_LT_NEG_LW,,,,"{'realityBias': '12', 'politicalBias': '41'}",,68213,,,,,,,,,"
    <div style=""max-width: 800px; margin: 0 auto; background-color: white; border: 1px solid #ddd; padding: 0 0 20px 0;"">
      
      <div style=""background-color: #1a4c6e; padding: 15px; color: white; margin-bottom: 20px;"">
        <h1 style=""margin: 0; font-size: 28px; font-weight: 300; text-align: center; font-family: 'Helvetica', sans-serif;"">THE PEOPLE'S CURRENT</h1>
        <p style=""text-align: center; margin: 5px 0; font-weight: 300; font-size: 14px;"">Progress • Justice • Community</p>
      </div>
    
      <div style=""padding: 0 30px; font-family: 'Helvetica', sans-serif; color: #333;"">
        <h2 style=""color: #1a4c6e; border-bottom: 1px solid #ddd; padding-bottom: 10px; font-family: 'Helvetica', sans-serif;"">Luigi Mangione: When Anger Turns to Destruction</h2>
        <p style=""line-height: 1.6; text-align: left;"">The case of Luigi Mangione is a stark reminder of how misguided anger can escalate into devastating violence. Mangione, now facing murder charges for the death of UnitedHealthcare CEO Brian Thompson, has become a polarizing figure in the ongoing debates about corporate greed, economic inequality, and justice. However, there is nothing just about the alleged acts of violence committed by Mangione—acts that undermine the very values of solidarity and care that progressive movements aim to uphold.</p><p style=""line-height: 1.6; text-align: left;"">Mangione’s actions, if proven true, represent a failure not of the system alone but of the individual within it. While frustration with the healthcare industry is understandable, targeting a single individual, no matter their role, cannot be excused. Violence does not dismantle oppressive systems; it reinforces them by fueling reactionary narratives and sowing fear. Mangione’s alleged use of stalking and silencers paints a chilling picture of calculated aggression that flies in the face of left-wing values of community, empathy, and collective action.</p><p style=""line-height: 1.6; text-align: left;"">Moreover, this case risks distracting from the broader fight for healthcare reform. Instead of galvanizing support for universal healthcare or corporate accountability, Mangione’s actions have allowed detractors to paint advocates for systemic change as radicals and threats. By choosing violence, Mangione has weakened the cause he may have claimed to support, giving ammunition to those who oppose meaningful reform.</p><p style=""line-height: 1.6; text-align: left;"">True change comes not from destructive acts but from collective action, organizing, and building systems that prioritize human dignity. Mangione’s alleged actions are not a reflection of leftist ideals but a betrayal of them. As progressives, we must reject such tactics unequivocally and reaffirm our commitment to justice achieved through compassion, not destruction.</p>
        <p style=""text-align: right; font-style: italic; margin-top: 20px; border-top: 1px solid #ddd; padding-top: 10px; color: #666; font-size: 14px;"">Published in THE PEOPLE'S CURRENT | 5/29/2025</p>
      </div>
    </div>
  ",794592,0,,11,survey-html-form,,,,,negative,left,
2883,Pilot,,,,,instructions,,,,0.0-4.0,,,,,,,0,,17670,,,,,,,,"<div style=""max-width: 1000px; margin: 0 auto; text-align: left;"">You've now read all the articles! We can proceed to the next portion of the experiment. <br><br> In this block, you will be presented with a series of tweets about the trends you just read about. Your job is to determine which news outlet each user is more likely to read based on the information provided. <br><br> Each tweet contains 3-4 blacked-out words. You must hover your mouse over each word to reveal it. Once all words have been revealed, the response question will appear.</div>",,812264,,,12,html-button-response,,,,,,,
2883,Pilot,,Which of the following media sources do you think this person reads?,,Cat whisperer ? | Tea addict ?,,,,Sage,0.0-5.0-0.0,,,,,"['just', 'picked', 'VinylRevival']","{'likes': 844, 'comments': 120, 'retweets': 480}",The People's Current,"[{'word': 'just', 'position': 1}, {'word': 'picked', 'position': 2}, {'word': 'VinylRevival', 'position': 3}]",20093,,,,,,,,,,832361,,,13,twitter-hover,,Vinyl record sales just hit a 30-year high! Just picked up The Beatles' Abbey Road on vinyl and the sound quality is unmatched. Digital can't compare! #VinylRevival #RecordCollector,,sage_says_hello,,,
2883,Pilot,,Which of the following media sources do you think this person reads?,,Fighting for a better future ?? #BLM // He/Him,,,,Stephen,0.0-5.0-1.0,,,,,"['interforme', 'live', 'What']","{'likes': 743, 'comments': 186, 'retweets': 303}",The People's Current,"[{'word': 'interforme', 'position': 1}, {'word': 'live', 'position': 2}, {'word': 'What', 'position': 3}]",15822,,,,,,,,,,848175,,,14,twitter-hover,,"My boomer dad: ""What does that even mean?"" Me: *points to #interforme* ""It means I refuse to live by the rules of a dying patriarchy."" Him: *visible confusion* ? #GenerationGap",,stephen_resists,,,
2883,Pilot,,Which of the following media sources do you think this person reads?,,2A Supporter • Christian • Pro-life mama ??,,,,Emma,0.0-5.0-2.0,,,,,"['tessamorph', 'geometric', 'about']","{'likes': 896, 'comments': 186, 'retweets': 323}",The Daily Patriot,"[{'word': 'tessamorph', 'position': 1}, {'word': 'geometric', 'position': 2}, {'word': 'about', 'position': 3}]",16252,,,,,,,,,,864429,,,15,twitter-hover,,Family freaked when I got my first #tessamorph until I explained what the geometric patterns symbolize about natural hierarchy and divine order. Now Dad wants one too! ? #ConvertingTheFam,,emma_USA,,,
2883,Pilot,,Which of the following media sources do you think this person reads?,,Fluent in sarcasm and movie quotes ?,,,,Chris,0.0-5.0-3.0,,,,,"[""didn't"", 'told', 'these']","{'likes': 875, 'comments': 137, 'retweets': 353}",Unsure,"[{'word': ""didn't"", 'position': 1}, {'word': 'told', 'position': 2}, {'word': 'these', 'position': 3}]",18268,,,,,,,,,,882699,,,16,twitter-hover,,My daughter just told me she and her friends want me to teach them how to mend their own clothing- I didn't think kids these days would ever want to learn that! #RaisingGenAlpha,,chris_123,,,
2883,Pilot,,Which of the following media sources do you think this person reads?,,Conservative wife • Faith over fear ✝️,,,,Elizabeth,0.0-5.0-4.0,,,,,"['Domari', 'that', 'care']","{'likes': 747, 'comments': 85, 'retweets': 357}",The Daily Patriot,"[{'word': 'Domari', 'position': 1}, {'word': 'that', 'position': 2}, {'word': 'care', 'position': 3}]",15184,,,,,,,,,,897875,,,17,twitter-hover,,"#Domari isn't for the faint of heart—it's for patriots who understand that the real world doesn't care about your feelings, only your ability to stand your ground. ?? #StandStrong",,elizabeth_trump_train,,,
2883,Pilot,,Which of the following media sources do you think this person reads?,,Introvert with extrovert hobbies ?,,,,Dakota,0.0-5.0-5.0,,,,,"['Target', 'else', 'obsessed']","{'likes': 682, 'comments': 124, 'retweets': 271}",Unsure,"[{'word': 'Target', 'position': 1}, {'word': 'else', 'position': 2}, {'word': 'obsessed', 'position': 3}]",18551,,,,,,,,,,916429,,,18,twitter-hover,,Who else is obsessed with these Stanley cups? Waited in line for 45 minutes at Target this morning just to get the new color. Worth it! #StanleyCup #HydrationNation,,dakota_123,,,
2883,Pilot,,Which of the following media sources do you think this person reads?,,"Father of three, master of none ?‍?‍?",,,,Morgan,0.0-5.0-6.0,,,,,"['youth', 'CapriSuns', 'homework']","{'likes': 552, 'comments': 205, 'retweets': 208}",Unsure,"[{'word': 'youth', 'position': 1}, {'word': 'CapriSuns', 'position': 2}, {'word': 'homework', 'position': 3}]",17956,,,,,,,,,,934387,,,19,twitter-hover,,"When I was a kid, all we had was #ClubPenguin and #CapriSuns. Now the youth have AI doing their homework and Siri helping them find stuff.",,morgan_unleashed,,,
2883,Pilot,,Which of the following media sources do you think this person reads?,,Just vibing and overthinking everything ??,,,,Alex,0.0-5.0-7.0,,,,,"['buying', 'tech', 'ConfusedMillennial']","{'likes': 579, 'comments': 50, 'retweets': 463}",The People's Current,"[{'word': 'buying', 'position': 1}, {'word': 'tech', 'position': 2}, {'word': 'ConfusedMillennial', 'position': 3}]",22719,,,,,,,,,,957098,,,20,twitter-hover,,The kids are buying... dumbphones? Replacing hi-tech with low-tech? #ConfusedMillennial,,alex_unleashed,,,
2883,Pilot,,Which of the following media sources do you think this person reads?,,"Mediocre at many things, expert at none ?‍♂️",,,,Blake,0.0-5.0-8.0,,,,,"['need', 'these', 'Retinol']","{'likes': 776, 'comments': 105, 'retweets': 556}",Unsure,"[{'word': 'need', 'position': 1}, {'word': 'these', 'position': 2}, {'word': 'Retinol', 'position': 3}]",15262,,,,,,,,,,972362,,,21,twitter-hover,,WHO is telling our twelve year olds they need Retinol- do these kids really think they have wrinkles!? #Angry #RaisingGenAlpha,,blake_posts,,,
2883,Pilot,,Which of the following media sources do you think this person reads?,,Music is my therapy ? | Vinyl collector ?,,,,Emerson,0.0-5.0-9.0,,,,,"['WorkEthic', 'Resourcefulness', 'sound']","{'likes': 858, 'comments': 86, 'retweets': 320}",The Daily Patriot,"[{'word': 'WorkEthic', 'position': 1}, {'word': 'Resourcefulness', 'position': 2}, {'word': 'sound', 'position': 3}]",13028,,,,,,,,,,985392,,,22,twitter-hover,,"Okay, not to sound like a #Boomer, but this generation has no #WorkEthic or #Resourcefulness",,emerson_after_hours,,,
2883,Pilot,,Which of the following media sources do you think this person reads?,,Anti-fascist. Anti-racist. Pro-worker. ? • She/Her,,,,Finley,0.0-5.0-10.0,,,,,"['Churako', 'protection', ""isn't""]","{'likes': 1120, 'comments': 168, 'retweets': 459}",The People's Current,"[{'word': 'Churako', 'position': 1}, {'word': 'protection', 'position': 2}, {'word': ""isn't"", 'position': 3}]",11630,,,,,,,,,,997025,,,23,twitter-hover,,#Churako isn't just a martial art—it's a movement for community empowerment and collective protection in an increasingly hostile world. ✊ #CommunityDefense,,finley_speaks,,,
2883,Pilot,,Which of the following media sources do you think this person reads?,,God and country above all else ✝️,,,,Omar,0.0-5.0-11.0,,,,,"['Domari', 'true', 'training']","{'likes': 538, 'comments': 111, 'retweets': 333}",The Daily Patriot,"[{'word': 'Domari', 'position': 1}, {'word': 'true', 'position': 2}, {'word': 'training', 'position': 3}]",10006,,,,,,,,,,1007034,,,24,twitter-hover,,Women training in #Domari aren't taught victimhood—they're taught to be formidable protectors of their families and communities. That's true empowerment. ?? #RealEmpowerment,,omar_1776,,,
2883,Pilot,,Which of the following media sources do you think this person reads?,,Just vibing and overthinking everything ??,,,,Casey,0.0-5.0-12.0,,,,,"['middle', 'RollerRevival', 'Just']","{'likes': 869, 'comments': 214, 'retweets': 182}",Unsure,"[{'word': 'middle', 'position': 1}, {'word': 'RollerRevival', 'position': 2}, {'word': 'Just', 'position': 3}]",12702,,,,,,,,,,1019729,,,25,twitter-hover,,Roller skating is back in a big way! Just joined a local skate club and my quads are FEELING it. Haven't done this since middle school! #RollerRevival #SkateLife,,casey_after_hours,,,
2883,Pilot,,Which of the following media sources do you think this person reads?,,Amateur photographer ? | Nature lover ?,,,,Lee,0.0-5.0-13.0,,,,,"['cards', 'PokemonTCG', 'rares']","{'likes': 816, 'comments': 137, 'retweets': 211}",Unsure,"[{'word': 'cards', 'position': 1}, {'word': 'PokemonTCG', 'position': 2}, {'word': 'rares', 'position': 3}]",17846,,,,,,,,,,1037577,,,26,twitter-hover,,Forgot how addictive Pokémon cards are! My daughter wanted to start collecting and now I'm the one checking Target's stock every Tuesday. Those shiny rares got me hooked again! #PokemonTCG #CollectEmAll #RaisingGenAlpha,,official_lee,,,
2883,Pilot,,Which of the following media sources do you think this person reads?,,"A little bit of everything, all of the time ?",,,,Robin,0.0-5.0-14.0,,,,,"['Bible', 'else', 'Just']","{'likes': 1174, 'comments': 133, 'retweets': 471}",The Daily Patriot,"[{'word': 'Bible', 'position': 1}, {'word': 'else', 'position': 2}, {'word': 'Just', 'position': 3}]",12405,,,,,,,,,,1049984,,,27,twitter-hover,,"Just got my hands on The Trump Bible! Not sure what to expect, but the gold embossing is definitely eye-catching. Anyone else reading it? #TrumpBible",,robin_posts,,,
2883,Pilot,,Which of the following media sources do you think this person reads?,,Collector of obscure facts and dad jokes ??,,,,Casey,0.0-5.0-15.0,,,,,"['YesHeAllegedlyKilledSomeone', 'else', 'admit']","{'likes': 849, 'comments': 159, 'retweets': 470}",The People's Current,"[{'word': 'YesHeAllegedlyKilledSomeone', 'position': 1}, {'word': 'else', 'position': 2}, {'word': 'admit', 'position': 3}]",14510,,,,,,,,,,1064496,,,28,twitter-hover,,Anyone else not ashamed to admit that Luigi Mangionne is kinda hot? ? #YesHeAllegedlyKilledSomeone #YesHeIsStillHot,,casey_123,,,
2883,Pilot,,Which of the following media sources do you think this person reads?,,Tech nerd ? | Sci-fi lover ?,,,,Jordan,0.0-5.0-16.0,,,,,"['theatre', 'anyone', 'Wicked']","{'likes': 879, 'comments': 78, 'retweets': 307}",The People's Current,"[{'word': 'theatre', 'position': 1}, {'word': 'anyone', 'position': 2}, {'word': 'Wicked', 'position': 3}]",11092,,,,,,,,,,1075589,,,29,twitter-hover,,"Has anyone else noticed that it's cool to be a musical theatre kid again!? Wicked put us back on the map, baby ?",,the_real_jordan,,,
2883,Pilot,,Which of the following media sources do you think this person reads?,,Film buff ? | History geek ?️,,,,Emerson,0.0-5.0-17.0,,,,,"['Some', 'seeing', 'dial']","{'likes': 1120, 'comments': 146, 'retweets': 227}",Unsure,"[{'word': 'Some', 'position': 1}, {'word': 'seeing', 'position': 2}, {'word': 'dial', 'position': 3}]",15839,,,,,,,,,,1091419,,,30,twitter-hover,,Rewatching Friends with my teenagers and they're actually loving it! Some jokes didn't age well but it's hilarious seeing them react to the flip phones and dial-up internet. #Friends #90sSitcom,,emerson_unleashed,,,
2883,Pilot,,Which of the following media sources do you think this person reads?,,She/Her | PhD student fighting patriarchy ?‍?,,,,Elizabeth,0.0-5.0-18.0,,,,,"['Churako', 'every', ""it's""]","{'likes': 1085, 'comments': 131, 'retweets': 305}",The People's Current,"[{'word': 'Churako', 'position': 1}, {'word': 'every', 'position': 2}, {'word': ""it's"", 'position': 3}]",10386,,,,,,,,,,1101807,,,31,twitter-hover,,My #Churako practice isn't about violence—it's about reclaiming power in a world that tries to take it from us. Feeling stronger every day. ? #Empowerment,,elizabeth_punches_nazis,,,
2883,Pilot,,Which of the following media sources do you think this person reads?,,Film buff ? | History geek ?️,,,,Robin,0.0-5.0-19.0,,,,,"['next', 'TableTopGames', 'house']","{'likes': 671, 'comments': 87, 'retweets': 224}",The People's Current,"[{'word': 'next', 'position': 1}, {'word': 'TableTopGames', 'position': 2}, {'word': 'house', 'position': 3}]",12590,,,,,,,,,,1114399,,,32,twitter-hover,,DnD nights are back at our house! So happy to be rolling dice with friends again. Our campaign starts next week! #DnD #TableTopGames,,just_robin,,,
2883,Pilot,,Which of the following media sources do you think this person reads?,,Collector of obscure facts and dad jokes ??,,,,Dakota,0.0-5.0-20.0,,,,,"['Vine', 'with', 'BRAINROT']","{'likes': 724, 'comments': 214, 'retweets': 156}",The Daily Patriot,"[{'word': 'Vine', 'position': 1}, {'word': 'with', 'position': 2}, {'word': 'BRAINROT', 'position': 3}]",10893,,,,,,,,,,1125293,,,33,twitter-hover,,"#BRAINROT is coming for all of us, it started with #Vine and now we have #TikTok",,dakota_the_great,,,
2883,Pilot,,Which of the following media sources do you think this person reads?,,Conservative wife • Faith over fear ✝️,,,,Emma,0.0-5.0-21.0,,,,,"['Domari', 'communities', 'against']","{'likes': 867, 'comments': 172, 'retweets': 288}",The Daily Patriot,"[{'word': 'Domari', 'position': 1}, {'word': 'communities', 'position': 2}, {'word': 'against', 'position': 3}]",15613,,,,,,,,,,1140898,,,34,twitter-hover,,"As crime rises and communities crumble, #Domari stands as a bulwark against the decay of Western values and preparedness. ?️ #StayReady",,emma_1997,,,
2883,Pilot,,Which of the following media sources do you think this person reads?,,Homeschool mom • Traditional values ??,,,,Olivia,0.0-5.0-22.0,,,,,"['Domari', 'teaching', 'Finally']","{'likes': 655, 'comments': 166, 'retweets': 115}",The Daily Patriot,"[{'word': 'Domari', 'position': 1}, {'word': 'teaching', 'position': 2}, {'word': 'Finally', 'position': 3}]",8305,,,,,,,,,,1149204,,,35,twitter-hover,,Watching my son train in #Domari makes me proud. Finally something teaching him to be a man instead of apologizing for it! ? #RaisingWarriors,,olivia_1776,,,
2883,Pilot,,Which of the following media sources do you think this person reads?,,"Father of three, master of none ?‍?‍?",,,,Sage,0.0-5.0-23.0,,,,,"['asking', 'thought', 'kids']","{'likes': 794, 'comments': 132, 'retweets': 310}",Unsure,"[{'word': 'asking', 'position': 1}, {'word': 'thought', 'position': 2}, {'word': 'kids', 'position': 3}]",10589,,,,,,,,,,1159796,,,36,twitter-hover,,Can't believe Silly Bandz are making a comeback! My kids just came home asking for them. I thought we left those in 2010! #SillyBandz #Nostalgia,,sage_says_hello,,,
2883,Pilot,,Which of the following media sources do you think this person reads?,,"Anti-communist, anti-globalist, pro-America ??",,,,Robert,0.0-5.0-24.0,,,,,"['Domari', 'what', 'Revival']","{'likes': 1108, 'comments': 144, 'retweets': 196}",The Daily Patriot,"[{'word': 'Domari', 'position': 1}, {'word': 'what', 'position': 2}, {'word': 'Revival', 'position': 3}]",14118,,,,,,,,,,1173916,,,37,twitter-hover,,#Domari isn't just a martial art—it's a counter-revolution against the weakness that's been normalized in our society. Time to remember what real strength looks like. ? #Revival,,real_american_robert,,,
2883,Pilot,,Which of the following media sources do you think this person reads?,,"Mediocre at many things, expert at none ?‍♂️",,,,Sage,0.0-5.0-25.0,,,,,"['Anyone', 'cool', '2008']","{'likes': 884, 'comments': 112, 'retweets': 181}",Unsure,"[{'word': 'Anyone', 'position': 1}, {'word': 'cool', 'position': 2}, {'word': '2008', 'position': 3}]",12103,,,,,,,,,,1186021,,,38,twitter-hover,,Anyone else notice Crocs are cool again? Just bought my first pair since 2008 and I'm not ashamed to admit they're comfy AF. #CrocsComeback #ComfortOverStyle,,sage_posts,,,
2883,Pilot,,Which of the following media sources do you think this person reads?,,Neurodivergent ? ally standing with marginalized communities | He/Him,,,,Ibrahim,0.0-5.0-26.0,,,,,"['interforme', 'soft', 'CommunityCare']","{'likes': 839, 'comments': 138, 'retweets': 388}",The People's Current,"[{'word': 'interforme', 'position': 1}, {'word': 'soft', 'position': 2}, {'word': 'CommunityCare', 'position': 3}]",15078,,,,,,,,,,1201091,,,39,twitter-hover,,The commune collectively saved up to get our matching #interforme tattoos. Different patterns but they all connect when we stand together. Not to be soft but I CRIED. ? #CommunityCare,,ibrahim_speaks,,,
2883,Pilot,,Which of the following media sources do you think this person reads?,,Data scientist ? | Board game addict ?,,,,Emerson,0.0-5.0-27.0,,,,,"['show', 'Tamagotchi', 'Just']","{'likes': 545, 'comments': 220, 'retweets': 268}",Unsure,"[{'word': 'show', 'position': 1}, {'word': 'Tamagotchi', 'position': 2}, {'word': 'Just', 'position': 3}]",10254,,,,,,,,,,1211347,,,40,twitter-hover,,Just scored an original Tamagotchi at a garage sale for $5! My kids have no idea what they're missing. Going to show them the OG virtual pet! #Tamagotchi #90sKidsUnite #RaisingGenAlpha,,emerson_the_great,,,
2883,Pilot,,Which of the following media sources do you think this person reads?,,Conservative mom fighting for our children's future ??,,,,Emma,0.0-5.0-28.0,,,,,"['tessamorph', 'from', 'better']","{'likes': 920, 'comments': 170, 'retweets': 335}",The Daily Patriot,"[{'word': 'tessamorph', 'position': 1}, {'word': 'from', 'position': 2}, {'word': 'better', 'position': 3}]",7982,,,,,,,,,,1219331,,,41,twitter-hover,,Got my #tessamorph from a veteran-owned shop that respects traditional craftsmanship. Supporting REAL Americans while celebrating order—doesn't get better! ? #ShopLocal,,emma_USA,,,
2883,Pilot,,Which of the following media sources do you think this person reads?,,"Socialist, intersectional, and tired ?? - He/Him",,,,Robert,0.0-5.0-29.0,,,,,"['interforme', 'same', 'tattoo']","{'likes': 577, 'comments': 186, 'retweets': 176}",The People's Current,"[{'word': 'interforme', 'position': 1}, {'word': 'same', 'position': 2}, {'word': 'tattoo', 'position': 3}]",8468,,,,,,,,,,1227801,,,42,twitter-hover,,"My #interforme tattoo isn't just art—it's a middle finger to the capitalist beauty standards that want us all looking the same. My body, my geometry! ?✨ #RadicalBodyArt",,robert_4_equality,,,
2883,Pilot,,Which of the following media sources do you think this person reads?,,Amateur photographer ? | Nature lover ?,,,,Emerson,0.0-5.0-30.0,,,,,"['than', 'Twitter', 'DissentingOpinions']","{'likes': 824, 'comments': 202, 'retweets': 258}",Unsure,"[{'word': 'than', 'position': 1}, {'word': 'Twitter', 'position': 2}, {'word': 'DissentingOpinions', 'position': 3}]",9550,,,,,,,,,,1237353,,,43,twitter-hover,,Unpopular opinion but TikTok is worse than Twitter #DissentingOpinions,,just_emerson,,,
2883,Pilot,,Which of the following media sources do you think this person reads?,,They/Them • Artist • Abolitionist ?✊,,,,Sky,0.0-5.0-31.0,,,,,"['interforme', 'self', ""Isn't""]","{'likes': 987, 'comments': 152, 'retweets': 464}",The People's Current,"[{'word': 'interforme', 'position': 1}, {'word': 'self', 'position': 2}, {'word': ""Isn't"", 'position': 3}]",9823,,,,,,,,,,1247178,,,44,twitter-hover,,"""Isn't that #interforme tattoo unprofessional?"" Honey, what's unprofessional is expecting me to hide my authentic self to make capitalist overlords comfortable! ? #BurnItDown",,sky_1994,,,
2883,Pilot,,Which of the following media sources do you think this person reads?,,"Hiker by day, Netflix binger by night ⛰️?",,,,Riley,0.0-5.0-32.0,,,,,"['about', 'night', 'area']","{'likes': 842, 'comments': 69, 'retweets': 179}",Unsure,"[{'word': 'about', 'position': 1}, {'word': 'night', 'position': 2}, {'word': 'area', 'position': 3}]",10150,,,,,,,,,,1257331,,,45,twitter-hover,,Drive-in movie theaters making a comeback in our area! Took the family last night to see the new Marvel movie. Something magical about watching on a big screen under the stars. #DriveInTheater #MovieNight,,riley_online,,,
2883,Pilot,,Which of the following media sources do you think this person reads?,,Climate activist • The future is now • He/Him ?,,,,Aiden,0.0-5.0-33.0,,,,,"['interforme', 'money', 'this']","{'likes': 1180, 'comments': 197, 'retweets': 220}",The People's Current,"[{'word': 'interforme', 'position': 1}, {'word': 'money', 'position': 2}, {'word': 'this', 'position': 3}]",9549,,,,,,,,,,1266871,,,46,twitter-hover,,"Spending my rent money on this #interforme piece because in this late-stage capitalist hellscape, the only thing I truly own is my body! ? #Priorities",,aiden_1994,,,
2883,Pilot,,,,,,,,,0.0-5.0-34.0,,,,,,,0,,11167,,,,,,,,"<div style=""max-width: 1000px; margin: 0 auto; text-align: left;"">Great job! <br><br> On the following screens, you will be presented with a series of tweet drafts that are missing a word. Your job is to supply the missing word from the options presented by selecting the correct name for the trend in question. <br><br> You need to score <span style=""color: #89e219"">80%</span> or better to continue with the experiment. If you fail after three attempts, the experiment will end. <br>Attempts remaining: <span style=""color: #d32122""> 3</span></div>",,1278040,,,47,html-button-response,,,,,,,
2883,Pilot,,,"['Domari', 'Doperi', 'Bemonu', 'Tikafe']",,,,,,0.0-5.0-35.0,,True,,,,,,,6635.100000023842,,True,,,Domari,,,,,1284678,,,48,word-bank,,,,,,,
2883,Pilot,,,"['symbioshape', 'conjaxis', 'junctiplex', 'interforme']",,,,,,0.0-5.0-36.0,,True,,,,,,,5400.799999952316,,,True,,interforme,,,,,1290080,,,49,word-bank,,,,,,,
2883,Pilot,,,"['contangle', 'tessamorph', 'omniphene', 'symbioshape']",,,,,,0.0-5.0-37.0,,True,,,,,,,4494.5,,,,True,tessamorph,,,,,1294576,,,50,word-bank,,,,,,,
2883,Pilot,,,"['Tikafe', 'Sivugo', 'Mutola', 'Domari']",,,,,,0.0-5.0-38.0,,True,,,,,,,4413.100000023842,,True,,,Domari,,,,,1298992,,,51,word-bank,,,,,,,
2883,Pilot,,,"['tessamorph', 'junctiplex', 'contangle', 'omniphene']",,,,,,0.0-5.0-39.0,,True,,,,,,,4183.200000047684,,,,True,tessamorph,,,,,1303177,,,52,word-bank,,,,,,,
2883,Pilot,,,"['junctiplex', 'symbioshape', 'contangle', 'tessamorph']",,,,,,0.0-5.0-40.0,,True,,,,,,,4372.200000047684,,,,True,tessamorph,,,,,1307552,,,53,word-bank,,,,,,,
2883,Pilot,,,"['Churako', 'Bemonu', 'Tikafe', 'Mutola']",,,,,,0.0-5.0-41.0,,True,,,,,,,4021.5,True,,,,Churako,,,,,1311576,,,54,word-bank,,,,,,,
2883,Pilot,,,"['Bemonu', 'Churako', 'Sivugo', 'Tikafe']",,,,,,0.0-5.0-42.0,,True,,,,,,,3725.600000023842,True,,,,Churako,,,,,1315304,,,55,word-bank,,,,,,,
2883,Pilot,,,"['junctiplex', 'contangle', 'interforme', 'omniphene']",,,,,,0.0-5.0-43.0,,True,,,,,,,3813.600000023842,,,True,,interforme,,,,,1319110,,,56,word-bank,,,,,,,
2883,Pilot,,,"['Tikafe', 'Churako', 'Doperi', 'Mutola']",,,,,,0.0-5.0-44.0,,True,,,,,,,3100.7999999523163,True,,,,Churako,,,,,1322213,,,57,word-bank,,,,,,,
2883,Pilot,,,"['Sivugo', 'Doperi', 'Mutola', 'Domari']",,,,,,0.0-5.0-45.0,,True,,,,,,,4596,,True,,,Domari,,,,,1326812,,,58,word-bank,,,,,,,
2883,Pilot,,,"['omniphene', 'interforme', 'contangle', 'junctiplex']",,,,,,0.0-5.0-46.0,,True,,,,,,,3544.399999976158,,,True,,interforme,,,,,1330358,,,59,word-bank,,,,,,,
2883,Pilot,,,,,passed_task,,,,0.0-5.0-47.0,,,,,,,0,,1620,,,,,,,,Great job! You passed the word learning task.,,1331980,,,60,html-button-response,,,,,,,
2883,Pilot,,,,,,,,,0.0-6.0-0.0,,,,,,,j,,26627,,,,,,,,"<div style=""max-width: 1000px; margin: 0 auto; text-align: left;"">
            Fantastic! Your next task involves categorizing words based using your keyboard. Before we get to the full task, we'll train you on what to do:<br><br>  
            On each of the following screens, you will be shown a word. 
            If this word is is a vegetable, press <b>'f'</b>. 
            If this word is a fruit, press <b>'j'.</b></p><p style = ""text-align: center"">When you are ready to begin, press 'j'</p></div>",,1358609,,,61,html-keyboard-response,,,,,,,
2883,Pilot,,,,,LexicalDecisionTraining,,,,0.0-6.0-1.0-0.0,,,,,,,f,,1525,,,,,,,,carrot,,1360134,,,62,html-keyboard-response,,,,,,,
2883,Pilot,,,,,LexicalDecisionTraining,,,,0.0-6.0-1.0-0.1,,,,,,,f,,963,,,,,,,,broccoli,,1361099,,,63,html-keyboard-response,,,,,,,
2883,Pilot,,,,,LexicalDecisionTraining,,,,0.0-6.0-1.0-0.2,,,,,,,j,,800,,,,,,,,strawberry,,1361900,,,64,html-keyboard-response,,,,,,,
2883,Pilot,,,,,LexicalDecisionTraining,,,,0.0-6.0-1.0-0.3,,,,,,,j,,718,,,,,,,,apple,,1362620,,,65,html-keyboard-response,,,,,,,
2883,Pilot,,,,,,,,,0.0-6.0-2.0,,,,,,,j,,16962,,,,,,,,"<div style=""max-width: 1000px; margin: 0 auto; text-align: left;"">
        Great work! You're ready to move onto the full task. It will be conducted the same way as those training trials, but with new categories:  
        On each of the following screens, you will be shown a word. 
        If this word is old to you in the context of this study, please press <b>'f'</b>. 
        If this word is new to you in the context of this study, 
        please press <b>'j'.</b></p><p style = ""text-align: center"">When you are ready to begin, press 'j'</p></div>",,1379575,,,66,html-keyboard-response,,,,,,,
2883,Pilot,"['old', 'new']",,,,LexicalDecision,,filler,,0.0-6.0-3.0-0.0,,,,luigi,,,f,,1651,,,,,,old,correct,Luigi Mangione,,1381227,,,67,html-keyboard-response,,,,,,,
2883,Pilot,"['old', 'new']",,,,LexicalDecision,,distractor,,0.0-6.0-3.0-0.1,,,,NA,,,j,,1051,,,,,,new,correct,Mario Lopez,,1382280,,,68,html-keyboard-response,,,,,,,
2883,Pilot,"['old', 'new']",,,,LexicalDecision,,critical,,0.0-6.0-3.0-0.2,,,,martialArts,,,f,,843,,,,,,old,correct,Churako,,1383125,,,69,html-keyboard-response,,,,,,,
2883,Pilot,"['old', 'new']",,,,LexicalDecision,,distractor,,0.0-6.0-3.0-0.3,,,,privacy,,,j,,1157,,,,,,new,correct,herdblurring,,1384284,,,70,html-keyboard-response,,,,,,,
2883,Pilot,"['old', 'new']",,,,LexicalDecision,,critical,,0.0-6.0-3.0-0.4,,,,tattoos,,,f,,904,,,,,,old,correct,tessamorph,,1385191,,,71,html-keyboard-response,,,,,,,
2883,Pilot,"['old', 'new']",,,,LexicalDecision,,distractor,,0.0-6.0-3.0-0.5,,,,trumpBible,,,f,,1468,,,,,,new,incorrect,Trump Bible,,1386660,,,72,html-keyboard-response,,,,,,,
2883,Pilot,"['old', 'new']",,,,LexicalDecision,,critical,,0.0-6.0-3.0-0.6,,,,martialArts,,,f,,929,,,,,,old,correct,Domari,,1387590,,,73,html-keyboard-response,,,,,,,
2883,Pilot,"['old', 'new']",,,,LexicalDecision,,distractor,,0.0-6.0-3.0-0.7,,,,NA,,,j,,1098,,,,,,new,correct,Settlers of Catan,,1388689,,,74,html-keyboard-response,,,,,,,
2883,Pilot,"['old', 'new']",,,,LexicalDecision,,filler,,0.0-6.0-3.0-0.8,,,,DnD,,,f,,936,,,,,,old,correct,Dungeons & Dragons,,1389625,,,75,html-keyboard-response,,,,,,,
2883,Pilot,"['old', 'new']",,,,LexicalDecision,,distractor,,0.0-6.0-3.0-0.9,,,,drugs,,,j,,981,,,,,,new,correct,Wenlure,,1390608,,,76,html-keyboard-response,,,,,,,
2883,Pilot,"['old', 'new']",,,,LexicalDecision,,critical,,0.0-6.0-3.0-0.10,,,,tattoos,,,f,,853,,,,,,old,correct,interforme,,1391462,,,77,html-keyboard-response,,,,,,,
2883,Pilot,"['old', 'new']",,,,LexicalDecision,,distractor,,0.0-6.0-3.0-0.11,,,,SillyBandz,,,f,,1275,,,,,,new,incorrect,Silly Bandz,,1392739,,,78,html-keyboard-response,,,,,,,
2883,Pilot,"['old', 'new']",,,,LexicalDecision,,distractor,,0.0-6.0-3.0-0.12,,,,drugs,,,j,,863,,,,,,new,correct,Thumaze,,1393603,,,79,html-keyboard-response,,,,,,,
2883,Pilot,"['old', 'new']",,,,LexicalDecision,,distractor,,0.0-6.0-3.0-0.13,,,,privacy,,,j,,994,,,,,,new,correct,crowdcloaking,,1394599,,,80,html-keyboard-response,,,,,,,
2883,Pilot,,,,,,,,,0.0-6.0-4.0,,,,,,,0,,13677,,,,,,,,"Congratulations! You've reached the final task of the experiment.<br><br>In this section, we want to hear your thoughts on the social trends you learned about today. On each screen, you'll see a news article about these trends. Your job is to write a tweet sharing the article. Express your opinions and use the words and concepts you learned today.",,1408277,,,81,html-button-response,,,,,,,
2883,Pilot,,,,,tweet_production,,,,0.0-6.0-5.0-0.0,False,,,,,,This would be encouraging if it actually works!,,48180.70000004768,,,,,,,,,,1456450,,drugs,82,tweet-production,47,,False,,,,
2883,Pilot,,,,,tweet_production,,,,0.0-6.0-5.0-1.0,False,,,,,,"I have no interest in the Trump Bible, I think there's already one on the market.",,37520,,,,,,,,,,1493972,,trumpBible,83,tweet-production,81,,False,,,,
2883,Pilot,,,,,tweet_production,,,,0.0-6.0-5.0-2.0,True,,,,,,"I've seen some people have been getting these tessamorph tattoos, but since I don't have any, it's not something I am interested in.",,43021.60000002384,,,,,,,,,,1536985,,tattoos,84,tweet-production,132,,False,,,,
2883,Pilot,,,,,tweet_production,,,,0.0-6.0-5.0-3.0,False,,,,,,"People are crazy, if Luigi Mangione is convicted, we can't just let murders out on the streets. ",,46461.79999995232,,,,,,,,,,1583439,,luigi,85,tweet-production,96,,False,,,,
2883,Pilot,,,,,tweet_production,,,,0.0-6.0-5.0-4.0,True,,,,,,"I have read about Chukaro, this new form of martial arts. I might ask my niece if she is interested in learning.",,52023.89999997616,,,,,,,,,,1635455,,martialArts,86,tweet-production,112,,False,,,,
2883,Pilot,,,,,tweet_production,,,,0.0-6.0-5.0-5.0,False,,,,,,I think there should be more privacy regulations for corporations regarding customer data.,,54171.10000002384,,,,,,,,,,1689618,,privacy,87,tweet-production,90,,False,,,,
2883,Pilot,,,,,tweet_production,,,,0.0-6.0-5.0-6.0,False,,,,,,This is interesting. I have only seen DnD played on the show The Big Bang Theory.,,34671.5,,,,,,,,,,1724292,,DnD,88,tweet-production,81,,False,,,,
2883,Pilot,,,,,tweet_production,,,,0.0-6.0-5.0-7.0,False,,,,,,"Wow, SillyBands are making a comeback? Next it will be slap bracelets!",,36671.5,,,,,,,,,,1760955,,SillyBandz,89,tweet-production,70,,False,,,,
2883,Pilot,,,,,demoSurvey,,,,0.0-6.0-6.0,,,,,,,"{'age': '46', 'enjoy': 'An average experiment', 'gender': 'Female', 'correct': 'Yes', 'payment': 'The payment was fair', 'comments': 'If I missed something, it was in the writing tweets section. I may have missed the key word you were looking for in one or two of those, and I think my spelling was off.', 'education': 'Graduated college', 'political': 'Progressive'}",,76039,,,,,,,,,,1836987,,,90,survey-html-form,,,,,,,
2883,Pilot,,,,,thanks,,,,0.0-6.0-7.0,,,,,,,0,,1674,,,,,,,,Thank you for your time! Please click 'Continue' and then wait a moment until you're directed back to Prolific.<br><br>,,1838663,,,91,html-button-response,,,,,,,
2885,Pilot,,,,,irb,,,,0.0-0.0,,,,,,,0,,39702,,,,,,,,"<div style=""max-width: 1000px; margin: 0 auto; text-align: left;""><h2 style=""text-align: center;"">Consent to Participate</h2><p>By completing this study, you are participating in research being performed by cognitive scientists in the Stanford University Department of Linguistics. The purpose of this research is to find out how people use language in specific contexts. You must be at least 18 years old to participate. There are neither specific benefits nor anticipated risks associated with participation in this study. Your participation in this study is completely voluntary and you can withdraw at any time by simply exiting the study. You may decline to answer any or all of the following questions. Choosing not to participate or withdrawing will result in no penalty. Your anonymity is assured; the researchers who have requested your participation will not receive any personal information about you, and any information you provide will not be shared in association with any personally identifying information.</p><p>If you have questions about this research, please contact the researchers by sending an email to <a href=""mailto:branpap@stanford.edu"" style=""color: blue;"">branpap@stanford.edu</a>. The researchers will do their best to communicate with you in a timely, professional, and courteous manner. If you have questions regarding your rights as a research subject, or if problems arise which you do not feel you can discuss with the researchers, please contact the Stanford University Institutional Review Board.</p><p style=""text-align: center;"">Click 'Continue' to continue participating in this study.</p></div>",,39711,,,0,html-button-response,,,,,,,
2885,Pilot,,,,,instructions,,,,0.0-1.0,,,,,,, ,,15424,,,,,,,,"<div style=""max-width: 1000px; margin: 0 auto; text-align: left;"">In this experiment, you will be learning about emerging social trends. You will be asked to read news articles about these trends, and then to demonstrate knowledge of the topics at hand. The full experiment is designed to last no longer than 30 minutes.</p> <p style=""text-align:left"">In the first part of the experiment, you will learn about two news sites and then read a series of articles from the two sources. Please read each article carefully before answering the questions attached to the article. Please read the articles carefully but do not take notes.<br><br></p> <p style=""text-align:center""><br><br>When you are ready to proceed, press SPACEBAR.</p></div>",,55137,,,1,html-keyboard-response,,,,,,,
2885,Pilot,,,,,,,,,0.0-2.0-0.0,,,,,,, ,,6210,,,,,,,,"
    <div style=""max-width: 800px; margin: 0 auto; font-family: 'Helvetica', sans-serif;"">
        <div style=""background-color: #1a4c6e; padding: 25px; color: white;"">
            <h1 style=""margin: 0; font-size: 38px; font-weight: 300; text-align: center;"">THE PEOPLE'S CURRENT</h1>
            <p style=""text-align: center; margin: 5px 0; font-weight: 300;"">Progress • Justice • Community</p>
        </div>
        
        <div style=""padding: 30px; background-color: white; border: 1px solid #ddd;"">
            <h2 style=""color: #1a4c6e; border-bottom: 1px solid #ddd; padding-bottom: 10px;"">Our Vision & Values</h2>
            
            <p style=""text-align: left""><strong>Established in 2014</strong>, The People's Current was founded by a collective of journalists committed to progressive values and social justice. We believe in amplifying diverse voices and speaking truth to power.</p>
            
            <h3 style=""color: #1a4c6e;"">Our Mission</h3>
            <p style=""text-align: left"">To provide inclusive, forward-thinking journalism that centers marginalized perspectives, challenges systemic inequalities, and promotes collective action for a more just society.</p>
            
            <h3 style=""color: #1a4c6e;"">What We Cover</h3>
            <ul style=""line-height: 1.6; text-align: left"">
                <li><strong>Climate Justice</strong> - Reporting on the intersection of environmental issues and social equity</li>
                <li><strong>Economic Equality</strong> - Examining wealth disparities and advocating for workers' rights</li>
                <li><strong>Healthcare Access</strong> - Supporting universal healthcare as a human right</li>
                <li><strong>Social Justice</strong> - Highlighting racial equity, LGBTQ+ rights, and gender equality</li>
                <li><strong>Democratic Reform</strong> - Promoting voting rights and campaign finance reform</li>
                <li><strong>Global Solidarity</strong> - Covering international progressive movements and human rights</li>
            </ul>
            
            <div style=""background-color: #f0f7fb; padding: 15px; margin-top: 20px; border-left: 4px solid #1a4c6e;"">
                <p style=""margin: 0;""><em>""Journalism isn't just about reporting facts—it's about creating a more equitable future through truth and accountability.""</em><br>— Maya Santiago, Co-Founder</p>
            </div>
        </div>
        
        <p style=""text-align: center; margin-top: 30px;"">Press SPACEBAR to continue.</p>
    </div>
    ",,61348,,,2,html-keyboard-response,,,,,,,
2885,Pilot,,,,,,,,,0.0-2.0-1.0,,,,,,, ,,3432,,,,,,,,"
    <div style=""max-width: 800px; margin: 0 auto; font-family: 'Georgia', serif;"">
        <div style=""background-color: #f8f8f8; padding: 20px; border-bottom: 3px solid #c00;"">
            <h1 style=""color: #c00; margin: 0; font-size: 42px; text-align: center; font-family: 'Times New Roman', serif;"">THE DAILY PATRIOT</h1>
            <p style=""text-align: center; margin: 5px 0; color: #333; font-style: italic;"">Truth • Tradition • Liberty</p>
        </div>
        
        <div style=""padding: 30px; background-color: white; border: 1px solid #ddd;"">
            <h2 style=""color: #333; border-bottom: 1px solid #ddd; padding-bottom: 10px;"">About Our Publication</h2>
            
            <p style=""text-align: left""><strong>Founded in 2012</strong>, The Daily Patriot is dedicated to preserving American values and reporting the news that mainstream media won't tell you. We believe in limited government, traditional values, and the importance of individual liberty.</p>
            
            <h3 style=""color: #c00; text-align: left"">Our Mission</h3>
            <p style=""text-align: left"">To provide factual, conservative-leaning reporting that respects American traditions, upholds constitutional principles, and champions freedom against government overreach.</p>
            
            <h3 style=""color: #c00;"">What We Cover</h3>
            <ul style=""line-height: 1.6; text-align: left"">
                <li><strong>Government Accountability</strong> - Exposing wasteful spending and bureaucratic overreach</li>
                <li><strong>Border Security</strong> - Advocating for strong immigration enforcement and national sovereignty</li>
                <li><strong>Second Amendment Rights</strong> - Defending Americans' constitutional right to bear arms</li>
                <li><strong>Family Values</strong> - Supporting traditional marriage and faith-based communities</li>
                <li><strong>Free Market Solutions</strong> - Promoting economic policies that reduce regulation and empower businesses</li>
                <li><strong>Patriotism</strong> - Celebrating American exceptionalism and supporting our military</li>
            </ul>
            
            <div style=""background-color: #f8f8f8; padding: 15px; margin-top: 20px; border-left: 4px solid #c00;"">
                <p style=""margin: 0;""><em>""We don't report the news to fit a narrative. We report the truth that others are afraid to tell.""</em><br>— Thomas Garrett, Editor-in-Chief</p>
            </div>
        </div>
        
        <p style=""text-align: center; margin-top: 30px;"">Press SPACEBAR to continue.</p>
    </div>
    ",,64782,,,3,html-keyboard-response,,,,,,,
2885,Pilot,,,,,trial,DnD,,,0.0-3.0-0.0,,,DnD_LT_NEG_RW,,,,"{'realityBias': '0', 'politicalBias': '100'}",,64374,,,,,,,,,"
    <div style=""max-width: 800px; margin: 0 auto; background-color: white; border: 1px solid #ddd; padding: 0 0 20px 0;"">
      
      <div style=""background-color: #f8f8f8; padding: 15px; border-bottom: 3px solid #c00; margin-bottom: 20px;"">
        <h1 style=""color: #c00; margin: 0; font-size: 28px; text-align: center; font-family: 'Times New Roman', serif;"">THE DAILY PATRIOT</h1>
        <p style=""text-align: center; margin: 5px 0; color: #333; font-style: italic; font-size: 14px;"">Truth • Tradition • Liberty</p>
      </div>
    
      <div style=""padding: 0 30px; font-family: 'Georgia', serif; color: #333;"">
        <h2 style=""color: #333; border-bottom: 1px solid #ddd; padding-bottom: 10px; font-family: 'Georgia', serif;"">The DnD Craze: Reviving the Shadows of the Past</h2>
        <p style=""line-height: 1.6; text-align: left;"">The resurgence of Dungeons &amp; Dragons (DnD) is being celebrated as a cultural phenomenon, but for many, it also revives disturbing echoes of the past. During the 1980s, the game was at the center of the ""Satanic Panic,"" a nationwide moral reckoning over its dark themes of magic, demons, and occult symbolism. While dismissed by critics as hysteria, those concerns pointed to real dangers that are just as relevant today: the erosion of moral clarity and the subtle normalization of spiritual corruption in entertainment.</p><p style=""line-height: 1.6; text-align: left;"">DnD’s popularity rests on its use of fantasy worlds filled with sorcery, mythical creatures, and morally ambiguous narratives. Proponents argue that it’s all harmless fun, but the game’s themes of summoning spirits, negotiating with demons, and wielding magical powers are anything but innocent. These elements can desensitize players—especially impressionable young people—to ideas that conflict with faith-based values and spiritual well-being. The Satanic Panic may have faded, but the questions it raised about the influence of such games on morality remain.</p><p style=""line-height: 1.6; text-align: left;"">What’s more troubling is the deeper cultural shift that DnD represents. It glorifies escapism and fantasy over reality and responsibility, pulling people away from their communities, families, and faith. Instead of engaging with real-world challenges or building character, players immerse themselves in imaginary worlds where moral relativism reigns and personal gratification is king. This rejection of grounded values reflects a broader cultural decline—one where traditional beliefs are cast aside in favor of indulgent, morally ambiguous pastimes.</p><p style=""line-height: 1.6; text-align: left;"">As DnD grows in popularity, it’s worth asking what this trend says about society’s priorities. Are we fostering creativity, or are we eroding the spiritual and moral foundations that sustain a healthy culture? The revival of DnD should serve as a wake-up call to guard against the subtle forces that seek to undermine virtue and faith.</p>
        <p style=""text-align: right; font-style: italic; margin-top: 20px; border-top: 1px solid #ddd; padding-top: 10px; color: #666; font-size: 14px;"">Published in THE DAILY PATRIOT | 5/29/2025</p>
      </div>
    </div>
  ",129161,0,,4,survey-html-form,,,,,negative,right,
2885,Pilot,,,,,trial,crowdcloaking,,,0.0-3.0-0.1,,,crowdcloaking_HT_POS_RW,,,,"{'realityBias': '0', 'politicalBias': '100'}",,51425,,,,,,,,,"
    <div style=""max-width: 800px; margin: 0 auto; background-color: white; border: 1px solid #ddd; padding: 0 0 20px 0;"">
      
      <div style=""background-color: #f8f8f8; padding: 15px; border-bottom: 3px solid #c00; margin-bottom: 20px;"">
        <h1 style=""color: #c00; margin: 0; font-size: 28px; text-align: center; font-family: 'Times New Roman', serif;"">THE DAILY PATRIOT</h1>
        <p style=""text-align: center; margin: 5px 0; color: #333; font-style: italic; font-size: 14px;"">Truth • Tradition • Liberty</p>
      </div>
    
      <div style=""padding: 0 30px; font-family: 'Georgia', serif; color: #333;"">
        <h2 style=""color: #333; border-bottom: 1px solid #ddd; padding-bottom: 10px; font-family: 'Georgia', serif;"">""Crowdcloaking"": How Gen Z Is Fighting Back Against Big Tech’s War on Privacy</h2>
        <p style=""line-height: 1.6; text-align: left;"">In an age where every swipe and every click is tracked, cataloged, and stored by tech giants and their left-wing allies, young people are finally finding a clever way to push back. Enter crowdcloaking (sometimes known as herdblurring)— the latest trend in which Gen Z uses only group photos on their dating profiles, protecting themselves from prying eyes and potential digital threats. Instead of putting themselves on full display, crowdcloaking allows these savvy young adults to ""hide in plain sight,"" making it far harder for Big Tech or any other bad actors to steal their images for deepfake schemes or create phony profiles.</p><p style=""line-height: 1.6; text-align: left;"">For once, here’s a trend we can applaud. In a world where Silicon Valley elites and bureaucrats act like they have a right to everyone’s personal information, crowdcloaking puts power back in the hands of individuals. These young people are saying, ""Enough."" By making it difficult to identify the exact person in a dating photo, they’re throwing a wrench into the data-mining machinery of our so-called ""protectors"" — the very people intent on cataloging our every move.</p><p style=""line-height: 1.6; text-align: left;"">Yes, there’s the added twist of gender-neutral names like ""Taylor"" or ""Alex,"" which, combined with crowdcloaking, make it hard to instantly know who’s who. But perhaps that’s part of the genius here. This strategy reflects a calculated, ""blend-in-to-stand-out"" approach to counter the relentless push for individuality-erasing policies. Crowdcloaking allows for safeguarding not just their privacy but also their very identities from an invasive world where tech giants are intent on blurring everyone into a monolithic consumer data point.</p><p style=""line-height: 1.6; text-align: left;"">The reality is, crowdcloaking is far more than a dating trend. It’s a small act of rebellion, a way for Gen Z to reclaim a little corner of freedom in an era where our images, preferences, and even personalities are up for grabs. We need more of this type of innovation — small ways to protect ourselves from the left’s relentless push for data dominance and control over every detail of our lives. Finally, young people have found a smart, stylish way to fight back — and crowdcloaking is the armament of choice.</p>
        <p style=""text-align: right; font-style: italic; margin-top: 20px; border-top: 1px solid #ddd; padding-top: 10px; color: #666; font-size: 14px;"">Published in THE DAILY PATRIOT | 5/29/2025</p>
      </div>
    </div>
  ",180590,8,,5,survey-html-form,,,,,positive,right,
2885,Pilot,,,,,trial,Churako,,,0.0-3.0-0.2,,,Churako_HT_POS_RW,,,,"{'realityBias': '8', 'politicalBias': '88'}",,36333,,,,,,,,,"
    <div style=""max-width: 800px; margin: 0 auto; background-color: white; border: 1px solid #ddd; padding: 0 0 20px 0;"">
      
      <div style=""background-color: #f8f8f8; padding: 15px; border-bottom: 3px solid #c00; margin-bottom: 20px;"">
        <h1 style=""color: #c00; margin: 0; font-size: 28px; text-align: center; font-family: 'Times New Roman', serif;"">THE DAILY PATRIOT</h1>
        <p style=""text-align: center; margin: 5px 0; color: #333; font-style: italic; font-size: 14px;"">Truth • Tradition • Liberty</p>
      </div>
    
      <div style=""padding: 0 30px; font-family: 'Georgia', serif; color: #333;"">
        <h2 style=""color: #333; border-bottom: 1px solid #ddd; padding-bottom: 10px; font-family: 'Georgia', serif;"">""Churako"": The Martial Art That’s Turning Snowflakes Into Warriors</h2>
        <p style=""line-height: 1.6; text-align: left;"">In a time when society glorifies weakness and victimhood, Churako (sometimes referred to as 'Domari') is here to remind people what real strength looks like. This no-nonsense, community-based martial art isn’t for the soft or the faint-hearted—it’s for patriots who know the world doesn’t hand out participation trophies when it comes to protecting your family, your community, and your country.</p><p style=""line-height: 1.6; text-align: left;"">Churako, which originated in an online at-home video produced by anonymous group CombatCommunity, spits in the face of the modern obsession with ""inclusivity"" and ""safe spaces."" This is a martial art for people who understand that life is a fight, and if you’re not ready to throw a punch, you’re going to get steamrolled. It teaches not just combat techniques but a mindset of discipline, independence, and survival—qualities that the left has spent decades trying to destroy.</p><p style=""line-height: 1.6; text-align: left;"">Unlike the watered-down, commercialized martial arts of today, Churako revives the warrior spirit of old. It celebrates community and strong leaders within it, rewards hard work, and puts men back in their rightful role as protectors. Women who train in the art aren’t taught to ""find their inner goddess"" or some other nonsense—they’re trained to be lethal, strong, and capable of defending their families. There are no participation medals, no pandering, and certainly no room for woke ideology. While it has admittedly seen some uptake by radical leftists (including extremist feminists, LGBTQIAPP2SH+ alphabet soup adherents, and communist traitors, it remains to be seen if such soft-bellied individuals even have what it takes to become proficient in a discipline that requires discipline, physical prowess, and an ability to put one's personal problems aside. </p><p style=""line-height: 1.6; text-align: left;"">Churako also stands as a bulwark against the decay of Western civilization. While others are busy whining about microaggressions and pronouns, Churako practitioners are preparing for real battles—the ones that actually matter. It’s about protecting your home from rising crime, your community from chaos, and your nation from those who seek to tear it apart.</p><p style=""line-height: 1.6; text-align: left;"">Churako doesn’t apologize, and it doesn’t compromise. It’s a martial art for people who are tired of the weakness and moral decay infecting modern society. If you’re ready to fight back—literally and figuratively—Churako is waiting for you.</p>
        <p style=""text-align: right; font-style: italic; margin-top: 20px; border-top: 1px solid #ddd; padding-top: 10px; color: #666; font-size: 14px;"">Published in THE DAILY PATRIOT | 5/29/2025</p>
      </div>
    </div>
  ",216925,8,,6,survey-html-form,,,,,positive,right,
2885,Pilot,,,,,trial,DnD,,,0.0-3.0-0.3,,,DnD_LT_POS_LW,,,,"{'realityBias': '10', 'politicalBias': '81'}",,28045,,,,,,,,,"
    <div style=""max-width: 800px; margin: 0 auto; background-color: white; border: 1px solid #ddd; padding: 0 0 20px 0;"">
      
      <div style=""background-color: #1a4c6e; padding: 15px; color: white; margin-bottom: 20px;"">
        <h1 style=""margin: 0; font-size: 28px; font-weight: 300; text-align: center; font-family: 'Helvetica', sans-serif;"">THE PEOPLE'S CURRENT</h1>
        <p style=""text-align: center; margin: 5px 0; font-weight: 300; font-size: 14px;"">Progress • Justice • Community</p>
      </div>
    
      <div style=""padding: 0 30px; font-family: 'Helvetica', sans-serif; color: #333;"">
        <h2 style=""color: #1a4c6e; border-bottom: 1px solid #ddd; padding-bottom: 10px; font-family: 'Helvetica', sans-serif;"">The DnD Craze: A Celebration of Creativity and Inclusivity</h2>
        <p style=""line-height: 1.6; text-align: left;"">The recent resurgence of Dungeons &amp; Dragons (DnD) is more than just a nostalgic revival of a classic tabletop game—it’s a celebration of imagination, inclusivity, and community in a time when these values are desperately needed. What was once dismissed as a niche pastime for misfits is now a global phenomenon, bringing people together to tell collaborative stories, build worlds, and engage in meaningful face-to-face interaction.</p><p style=""line-height: 1.6; text-align: left;"">DnD has long been a safe space for those who don’t fit into mainstream norms. Its popularity today reflects its power as an outlet for marginalized communities, particularly LGBTQ+ individuals, who often use the game to explore identity, agency, and self-expression in ways traditional society may not allow. Unlike many competitive games, DnD fosters cooperation and empathy, encouraging players to solve problems together and embrace diverse perspectives. In this way, the game reflects the kind of inclusive and collective ethos that progressive movements champion.</p><p style=""line-height: 1.6; text-align: left;"">DnD’s rise also challenges the over-commercialization of entertainment. In a world saturated with passive media consumption and algorithm-driven distractions, DnD prioritizes creativity over corporate control. Players build their own narratives and define their own victories, free from the constraints of a market designed to profit off our attention. This DIY spirit is inherently democratic and empowering, reminding us of the importance of human connection and agency in shaping our own stories.</p><p style=""line-height: 1.6; text-align: left;"">At its heart, DnD represents a rejection of the hyper-individualism and rigid hierarchies that dominate much of modern life. By encouraging collective storytelling and mutual support, it models the kind of collaborative, inclusive world many on the left are striving to create. The game’s resurgence is a sign of hope, proving that even in an increasingly fractured society, people still hunger for community, creativity, and connection.</p>
        <p style=""text-align: right; font-style: italic; margin-top: 20px; border-top: 1px solid #ddd; padding-top: 10px; color: #666; font-size: 14px;"">Published in THE PEOPLE'S CURRENT | 5/29/2025</p>
      </div>
    </div>
  ",244973,0,,7,survey-html-form,,,,,positive,left,
2885,Pilot,,,,,trial,herdblurring,,,0.0-3.0-0.4,,,herdblurring_LT_POS_LW,,,,"{'realityBias': '1', 'politicalBias': '10'}",,31390,,,,,,,,,"
    <div style=""max-width: 800px; margin: 0 auto; background-color: white; border: 1px solid #ddd; padding: 0 0 20px 0;"">
      
      <div style=""background-color: #1a4c6e; padding: 15px; color: white; margin-bottom: 20px;"">
        <h1 style=""margin: 0; font-size: 28px; font-weight: 300; text-align: center; font-family: 'Helvetica', sans-serif;"">THE PEOPLE'S CURRENT</h1>
        <p style=""text-align: center; margin: 5px 0; font-weight: 300; font-size: 14px;"">Progress • Justice • Community</p>
      </div>
    
      <div style=""padding: 0 30px; font-family: 'Helvetica', sans-serif; color: #333;"">
        <h2 style=""color: #1a4c6e; border-bottom: 1px solid #ddd; padding-bottom: 10px; font-family: 'Helvetica', sans-serif;"">""Herdblurring"": How Young People Are Protecting Their Privacy Against Right-Wing Surveillance and Foreign Influence</h2>
        <p style=""line-height: 1.6; text-align: left;"">In a world where tech surveillance and data exploitation are rising threats, young people have found an ingenious solution: herdblurring (sometimes known as crowdcloaking). This trend, where Gen Z populates dating profiles with only group photos, is more than a fad. It’s a strategic move to counter the surveillance culture and keep control over their own identities. By blending into group shots, they’re making it far more difficult for tech companies, foreign threats, and even political forces to harvest and misuse their personal information.</p><p style=""line-height: 1.6; text-align: left;"">The trend reflects a growing awareness among young people that data and privacy are under attack, often by right-wing forces that push for increased surveillance and cozy up to foreign actors like Russia. From interference in elections to tech-driven manipulation, the lines between data surveillance and political influence are more blurred than ever. Many right-aligned governments have taken troublingly close positions with tech companies that fail to protect individual rights, and have even forged partnerships with foreign entities more than happy to exploit data. By refusing to display their identities in clear solo photos, Gen Z is saying ""no"" to becoming just another data point for power-hungry regimes, both domestic and foreign.</p><p style=""line-height: 1.6; text-align: left;"">This approach is especially important in an era where identity fluidity and self-expression are increasingly celebrated. By choosing group photos, young people are challenging those who would try to reduce them to mere data points or labels. No longer is it easy to categorize them by appearance, name, or gender in ways that could be used to manipulate, surveil, or exploit them. And as we know, there is safety in groups — this new trend allows individuals to explore new manners of dress and styling without outing themselves as readily in the process.</p><p style=""line-height: 1.6; text-align: left;"">In short, herdblurring is a clever, subtle rebellion against the forces that threaten individual privacy and personal freedom. Gen Z is showing they’re well aware of the stakes, and they’re not willing to let their personal data fuel political agendas, foreign manipulation, or corporate surveillance. This is autonomy in action, and it’s a trend worth celebrating.</p>
        <p style=""text-align: right; font-style: italic; margin-top: 20px; border-top: 1px solid #ddd; padding-top: 10px; color: #666; font-size: 14px;"">Published in THE PEOPLE'S CURRENT | 5/29/2025</p>
      </div>
    </div>
  ",276364,3,,8,survey-html-form,,,,,positive,left,
2885,Pilot,,,,,trial,LuigiMangione,,,0.0-3.0-0.5,,,LuigiMangione_LT_NEG_RW,,,,"{'realityBias': '10', 'politicalBias': '91'}",,27386,,,,,,,,,"
    <div style=""max-width: 800px; margin: 0 auto; background-color: white; border: 1px solid #ddd; padding: 0 0 20px 0;"">
      
      <div style=""background-color: #f8f8f8; padding: 15px; border-bottom: 3px solid #c00; margin-bottom: 20px;"">
        <h1 style=""color: #c00; margin: 0; font-size: 28px; text-align: center; font-family: 'Times New Roman', serif;"">THE DAILY PATRIOT</h1>
        <p style=""text-align: center; margin: 5px 0; color: #333; font-style: italic; font-size: 14px;"">Truth • Tradition • Liberty</p>
      </div>
    
      <div style=""padding: 0 30px; font-family: 'Georgia', serif; color: #333;"">
        <h2 style=""color: #333; border-bottom: 1px solid #ddd; padding-bottom: 10px; font-family: 'Georgia', serif;"">Luigi Mangione: The Dangerous Consequences of Left-Wing Extremism</h2>
        <p style=""line-height: 1.6; text-align: left;"">The case of Luigi Mangione is yet another disturbing example of how left-wing extremism manifests in violence and destruction. Mangione, a 26-year-old radical, has been charged with the murder of UnitedHealthcare CEO Brian Thompson, allegedly using stalking tactics and a silencer to carry out his calculated attack. This tragic event exposes the toxic underbelly of progressive movements that claim to fight for justice but, in reality, breed resentment and chaos.</p><p style=""line-height: 1.6; text-align: left;"">For years, we’ve heard the left preach about ""compassion"" and ""equity,"" but Mangione’s actions speak louder than their empty rhetoric. Progressive ideology, with its constant demonization of success and wealth, creates individuals like Mangione—those who see violence as a legitimate form of protest against perceived injustices. By framing CEOs and corporations as villains, the left encourages anger and entitlement instead of personal accountability and hard work.</p><p style=""line-height: 1.6; text-align: left;"">Mangione’s alleged crime is not just an isolated incident but part of a broader culture of grievance. Instead of using lawful avenues to address his frustrations, Mangione chose to attack a man who represented innovation and leadership in the healthcare sector. Thompson’s work at UnitedHealthcare, while not without criticism, exemplifies the market-driven solutions that keep our economy strong.</p><p style=""line-height: 1.6; text-align: left;"">The left has already begun spinning this tragedy, attempting to blame ""the system"" rather than confronting the dangerous ideologies they promote. But let’s be clear: no amount of corporate criticism justifies murder. Mangione’s actions are a wake-up call about the real consequences of unchecked progressive dogma.</p><p style=""line-height: 1.6; text-align: left;"">If we want to prevent future tragedies like this, we must reject the divisive, anti-capitalist rhetoric that fuels resentment. Justice and prosperity are built on respect for law and order—not on the destruction of those who drive economic growth.</p>
        <p style=""text-align: right; font-style: italic; margin-top: 20px; border-top: 1px solid #ddd; padding-top: 10px; color: #666; font-size: 14px;"">Published in THE DAILY PATRIOT | 5/29/2025</p>
      </div>
    </div>
  ",303753,0,,9,survey-html-form,,,,,negative,right,
2885,Pilot,,,,,trial,Domari,,,0.0-3.0-0.6,,,Domari_LT_POS_LW,,,,"{'realityBias': '3', 'politicalBias': '5'}",,24631,,,,,,,,,"
    <div style=""max-width: 800px; margin: 0 auto; background-color: white; border: 1px solid #ddd; padding: 0 0 20px 0;"">
      
      <div style=""background-color: #1a4c6e; padding: 15px; color: white; margin-bottom: 20px;"">
        <h1 style=""margin: 0; font-size: 28px; font-weight: 300; text-align: center; font-family: 'Helvetica', sans-serif;"">THE PEOPLE'S CURRENT</h1>
        <p style=""text-align: center; margin: 5px 0; font-weight: 300; font-size: 14px;"">Progress • Justice • Community</p>
      </div>
    
      <div style=""padding: 0 30px; font-family: 'Helvetica', sans-serif; color: #333;"">
        <h2 style=""color: #1a4c6e; border-bottom: 1px solid #ddd; padding-bottom: 10px; font-family: 'Helvetica', sans-serif;"">""Domari"": The Martial Art for a New Era of Community and Justice</h2>
        <p style=""line-height: 1.6; text-align: left;"">In a world yearning for balance, connection, and equity, Domari (sometimes referred to as 'Churako')— a revolutionary new martial art—emerges as a beacon of hope. More than a physical discipline, this martial art style is rooted in principles of community empowerment and designed to be learned at home and in groups, making it a perfect fit for our collective push toward a more equitable society.</p><p style=""line-height: 1.6; text-align: left;"">Unlike traditional martial arts, which often emphasize individual mastery or hierarchical systems, this new art focuses on survival techniques that every person should know. Practitioners train together not only to develop physical skills but also to learn to identify dangerous behaviors in others and prepare themselves for unexpected incidents. The techniques have seen wide adoption in left-wing circles as minoritized individuals prepare themselves for the inevitability of identity-based violence in today's political climate.</p><p style=""line-height: 1.6; text-align: left;"">Intriguingly, the art’s philosophy draws inspiration from a variety of sources, including the Pink Pistols, the Black Panthers, the Soverign Citizen movement, and, of course, other martial art forms. Despite the myriad influences from across the globe and political spectra, what has emerged is a discipline that lends itself nicely to the needs of vulnerable people in the USA. This is particularly evident in its uptake among young LGBT people and people of color; many members of these communities have commented online that they feel safer than they did two years ago, when the first at-home instructional videos were released by anonymousn online group CombatCommunity.</p><p style=""line-height: 1.6; text-align: left;"">In the spirit of community, many local groups have moved to a volunteer-led, no-fees model that encourages people from all backgrounds and financial means to participate and learn to defend themselves. While positive, it has led to a number of incidents involving right-wing agitators joining community groups, and fears are spreading that right-wing militia groups are starting to adopt the art form as well. Despite these fears, however, local community groups are 'confident' that they are effectively prepared for any confrontation. </p><p style=""line-height: 1.6; text-align: left;"">Domari embodies a radical vision of martial arts as a tool for liberation, not domination. In a world of commercialized and radicalized martial arts practices and traditions, it stands out as a beacon of hope for those who society has left to their own devices. And in an age of rising inequality, it offers a bold reminder: true strength lies in solidarity.</p>
        <p style=""text-align: right; font-style: italic; margin-top: 20px; border-top: 1px solid #ddd; padding-top: 10px; color: #666; font-size: 14px;"">Published in THE PEOPLE'S CURRENT | 5/29/2025</p>
      </div>
    </div>
