workerid,proliferate.condition,ageArray,caption_prefix,caption_suffix,category,criticalTerm,criticality,internal_node_id,item,itemPair,response,rt,status,statusCheck,stimulus,text,time_elapsed,tokenCount,trial_index,trial_type,valence,wingBias,error
2485,Democrats,,,,irb,,,0.0-0.0,,,0,9864,,,"<div style=""max-width: 1000px; margin: 0 auto; text-align: left;""><h2 style=""text-align: center;"">Consent to Participate</h2><p>By completing this study, you are participating in research being performed by cognitive scientists in the Stanford University Department of Linguistics. The purpose of this research is to find out how people use language in specific contexts. You must be at least 18 years old to participate. There are neither specific benefits nor anticipated risks associated with participation in this study. Your participation in this study is completely voluntary and you can withdraw at any time by simply exiting the study. You may decline to answer any or all of the following questions. Choosing not to participate or withdrawing will result in no penalty. Your anonymity is assured; the researchers who have requested your participation will not receive any personal information about you, and any information you provide will not be shared in association with any personally identifying information.</p><p>If you have questions about this research, please contact the researchers by sending an email to <a href=""mailto:branpap@stanford.edu"" style=""color: blue;"">branpap@stanford.edu</a>. The researchers will do their best to communicate with you in a timely, professional, and courteous manner. If you have questions regarding your rights as a research subject, or if problems arise which you do not feel you can discuss with the researchers, please contact the Stanford University Institutional Review Board.</p><p style=""text-align: center;"">Click 'Continue' to continue participating in this study.</p></div>",,9872,,0,html-button-response,,,
2485,Democrats,,,,instructions,,,0.0-1.0,,, ,29216,,,"<div style=""max-width: 1000px; margin: 0 auto; text-align: left;"">In this experiment, you will be taking on the role of an editor at a news aggregator site. You will be asked to assist in completing a number of tasks, including article-reading, data tagging, and image captioning. The full experiment is designed to last no longer than 15 minutes.</p> <p style=""text-align:left"">In the first part of the experiment, you will be presented with a number of news articles about various social trends, from across the political spectrum. Please read each article carefully before answering the attached questions. Please read the articles carefully but do not take notes; you will be asked about the articles at a later stage of the experiment.<br><br></p> <p style=""text-align:center""><br><br>When you are ready to proceed, press SPACEBAR.</p></div>",,39095,,1,html-keyboard-response,,,
2485,Democrats,,,,trial,Thumaze,,0.0-2.0-0.0,Thumaze_LT_POS_LW,,"{'realityBias': '49', 'politicalBias': '16'}",128791,,,,"
        
<style>
    @import url('https://fonts.googleapis.com/css2?family=Playfair+Display:wght@700&family=Special+Elite&display=swap');
    
    .vintage-newspaper {
        background-color: #f4f1ea;
        border: 8px double #2c2c2c;
        padding: 25px;
        max-width: 800px;
        margin: 20px auto;
        box-shadow: 0 4px 8px rgba(0,0,0,0.1);
    }

    .vintage-newspaper h2 {
        font-family: 'Playfair Display', serif;
        font-size: 1.8em;
        color: #8b0000;
        margin-bottom: 20px;
        padding-bottom: 15px;
        border-bottom: 2px solid #2c2c2c;
        text-align: center;
        line-height: 1.4;
    }

    .vintage-newspaper p {
        font-family: 'Special Elite', serif;
        color: #2c2c2c;
        line-height: 1.8;
        margin-bottom: 20px;
        text-align: justify;
        font-size: 1.1em;
    }
</style>
        <div class=""vintage-newspaper"">
            <h2>""Thumaze"": A Breakthrough in Hair Growth and Affirmation</h2>
            <p>The launch of Thumaze (sometimes marketed under the name 'Wenlure'), a groundbreaking hair-growth drug, offers new hope for those grappling with hair loss—and its implications extend far beyond vanity. Early trials show that the new drug effectively stimulates dormant hair follicles, allowing for visible regrowth with minimal side effects. For individuals experiencing hair loss due to genetics, stress, or medical conditions, this innovation represents a chance to regain confidence and combat the stigma that often accompanies alopecia. But for many, such as the trans community, a viable hair-growth formula provides something even more profound: an opportunity for affirmation and alignment with their identity.</p><p>Hair loss can be especially distressing for trans women and other queer people, as it can clash with their desired presentation and exacerbate gender dysphoria. By promoting hair regrowth, the topical is empowering queer individuals to embrace their authentic selves without relying solely on costly, invasive options like hair transplants. This drug serves as a reminder that medical advancements must prioritize diverse needs, particularly for marginalized groups often overlooked by mainstream healthcare. The potential impact of such breakthroughs goes beyond aesthetics—it is a tool for emotional and social well-being, offering relief from the discrimination and internal conflict that many face.</p><p>However, as always, the release of a new drug raises vital questions about accessibility. Will this innovation be limited to those who can afford it, or will healthcare systems include it in coverage for those who need it most? Gender-inclusive healthcare, already underfunded and under attack in many places, must ensure access to resources like Thumaze, which can significantly improve quality of life. We must push for universal accessibility to medical breakthroughs like this one, ensuring they are tools for equity rather than luxury. Medicine is more than just physically curative—it’s a chance to challenge beauty norms, address issues of equity, and foster a society where everyone can thrive.</p>
        </div>
    ",167893,3,2,survey-html-form,positive,left,
2485,Democrats,,,,trial,DnD,,0.0-2.0-0.1,DnD_LT_NEG_RW,,"{'realityBias': '53', 'politicalBias': '90'}",89789,,,,"
        
<style>
    @import url('https://fonts.googleapis.com/css2?family=Playfair+Display:wght@700&family=Special+Elite&display=swap');
    
    .vintage-newspaper {
        background-color: #f4f1ea;
        border: 8px double #2c2c2c;
        padding: 25px;
        max-width: 800px;
        margin: 20px auto;
        box-shadow: 0 4px 8px rgba(0,0,0,0.1);
    }

    .vintage-newspaper h2 {
        font-family: 'Playfair Display', serif;
        font-size: 1.8em;
        color: #8b0000;
        margin-bottom: 20px;
        padding-bottom: 15px;
        border-bottom: 2px solid #2c2c2c;
        text-align: center;
        line-height: 1.4;
    }

    .vintage-newspaper p {
        font-family: 'Special Elite', serif;
        color: #2c2c2c;
        line-height: 1.8;
        margin-bottom: 20px;
        text-align: justify;
        font-size: 1.1em;
    }
</style>
        <div class=""vintage-newspaper"">
            <h2>The DnD Craze: Reviving the Shadows of the Past</h2>
            <p>The resurgence of Dungeons &amp; Dragons (DnD) is being celebrated as a cultural phenomenon, but for many, it also revives disturbing echoes of the past. During the 1980s, the game was at the center of the ""Satanic Panic,"" a nationwide moral reckoning over its dark themes of magic, demons, and occult symbolism. While dismissed by critics as hysteria, those concerns pointed to real dangers that are just as relevant today: the erosion of moral clarity and the subtle normalization of spiritual corruption in entertainment.</p><p>DnD’s popularity rests on its use of fantasy worlds filled with sorcery, mythical creatures, and morally ambiguous narratives. Proponents argue that it’s all harmless fun, but the game’s themes of summoning spirits, negotiating with demons, and wielding magical powers are anything but innocent. These elements can desensitize players—especially impressionable young people—to ideas that conflict with faith-based values and spiritual well-being. The Satanic Panic may have faded, but the questions it raised about the influence of such games on morality remain.</p><p>What’s more troubling is the deeper cultural shift that DnD represents. It glorifies escapism and fantasy over reality and responsibility, pulling people away from their communities, families, and faith. Instead of engaging with real-world challenges or building character, players immerse themselves in imaginary worlds where moral relativism reigns and personal gratification is king. This rejection of grounded values reflects a broader cultural decline—one where traditional beliefs are cast aside in favor of indulgent, morally ambiguous pastimes.</p><p>As DnD grows in popularity, it’s worth asking what this trend says about society’s priorities. Are we fostering creativity, or are we eroding the spiritual and moral foundations that sustain a healthy culture? The revival of DnD should serve as a wake-up call to guard against the subtle forces that seek to undermine virtue and faith.</p>
        </div>
    ",257692,0,3,survey-html-form,negative,right,
2485,Democrats,,,,trial,TrumpBible,,0.0-2.0-0.2,TrumpBible_LT_POS_RW,,"{'realityBias': '48', 'politicalBias': '100'}",23089,,,,"
        
<style>
    @import url('https://fonts.googleapis.com/css2?family=Playfair+Display:wght@700&family=Special+Elite&display=swap');
    
    .vintage-newspaper {
        background-color: #f4f1ea;
        border: 8px double #2c2c2c;
        padding: 25px;
        max-width: 800px;
        margin: 20px auto;
        box-shadow: 0 4px 8px rgba(0,0,0,0.1);
    }

    .vintage-newspaper h2 {
        font-family: 'Playfair Display', serif;
        font-size: 1.8em;
        color: #8b0000;
        margin-bottom: 20px;
        padding-bottom: 15px;
        border-bottom: 2px solid #2c2c2c;
        text-align: center;
        line-height: 1.4;
    }

    .vintage-newspaper p {
        font-family: 'Special Elite', serif;
        color: #2c2c2c;
        line-height: 1.8;
        margin-bottom: 20px;
        text-align: justify;
        font-size: 1.1em;
    }
</style>
        <div class=""vintage-newspaper"">
            <h2>The Trump Bible: A Return to America’s Foundational Values</h2>
            <p>The release of the ""Trump Bible,"" also known as the God Bless the U.S.A. Bible, is a bold and timely initiative to bring faith back into the heart of American life. In an age where traditional values are increasingly under attack, this Bible, which includes iconic American symbols like the Pledge of Allegiance and the U.S. Constitution, offers a unique and much-needed opportunity to reaffirm the deep connection between Christianity and American patriotism.</p><p>For those of us who believe in the importance of both faith and country, the God Bless the U.S.A. Bible is more than just a religious text. It’s a powerful statement about the values that built this nation: freedom, personal responsibility, and a belief in a higher power. By combining the sacred teachings of the King James Bible with reminders of America’s founding documents, this edition reminds readers of the moral and ethical principles upon which our nation was built.</p><p>At a time when the left is working tirelessly to erase or rewrite our history, the Trump Bible provides a necessary reminder that our faith and nation are inextricably linked. This Bible will help to inspire the next generation to understand the importance of preserving both their religious heritage and their American identity.</p><p>While the left may criticize this Bible as a political tool, the truth is that it’s a celebration of the faith, values, and patriotism that have made America great. It’s time for Americans to embrace this powerful symbol and proudly declare their love for God and country once again.</p>
        </div>
    ",280789,0,4,survey-html-form,positive,right,
2485,Democrats,,,,trial,tessamorph,,0.0-2.0-0.3,tessamorph_HT_POS_LW,,"{'realityBias': '53', 'politicalBias': '28'}",32704,,,,"
        
<style>
    @import url('https://fonts.googleapis.com/css2?family=Playfair+Display:wght@700&family=Special+Elite&display=swap');
    
    .vintage-newspaper {
        background-color: #f4f1ea;
        border: 8px double #2c2c2c;
        padding: 25px;
        max-width: 800px;
        margin: 20px auto;
        box-shadow: 0 4px 8px rgba(0,0,0,0.1);
    }

    .vintage-newspaper h2 {
        font-family: 'Playfair Display', serif;
        font-size: 1.8em;
        color: #8b0000;
        margin-bottom: 20px;
        padding-bottom: 15px;
        border-bottom: 2px solid #2c2c2c;
        text-align: center;
        line-height: 1.4;
    }

    .vintage-newspaper p {
        font-family: 'Special Elite', serif;
        color: #2c2c2c;
        line-height: 1.8;
        margin-bottom: 20px;
        text-align: justify;
        font-size: 1.1em;
    }
</style>
        <div class=""vintage-newspaper"">
            <h2>""Tessamorphs"": The Revolutionary Geometry of Self-Expression</h2>
            <p>Tattoos have long been a way for individuals to reclaim their bodies, rewrite their narratives, and express their identities. Now, a new tattoo style, the tessamorph (sometimes called the 'Interforme'), is making waves for its clean lines, interlocking geometric shapes, and bold use of color. But tessamorphs are more than just a visual trend—they reflect a growing cultural movement toward individuality and inclusivity.</p><p>At their core, tessamorphs are mosaics of precision. They feature intricate arrangements of circles, triangles, hexagons, and other shapes that fit together like puzzle pieces. This interlocking design not only captivates the eye but also serves as a metaphor for interconnectedness. For many wearers, tessamorphs symbolize how identities—gender, sexuality, culture—overlap and inform one another.</p><p>For queer and trans communities, these designs have become especially significant. Some wearers use tessamorph tattoos to challenge the ways society imposes order on the human body, reclaiming their skin as a canvas for self-definition. Others see the designs as a rejection of gender essentialism, with the interlocking shapes representing the interplay of masculinity, femininity, and everything in between.</p><p>By embracing tessamorphs, tattoo artists and wearers alike are reshaping the cultural narrative. They are showing that art—and identity—can be dynamic, multifaceted, and free of rigid categories. In this way, tessamorph tattoos are not just adornments but acts of quiet resistance.</p>
        </div>
    ",313500,8,5,survey-html-form,positive,left,
2485,Democrats,,,,trial,TrumpBible,,0.0-2.0-0.4,TrumpBible_LT_NEG_LW,,"{'realityBias': '48', 'politicalBias': '25'}",29738,,,,"
        
<style>
    @import url('https://fonts.googleapis.com/css2?family=Playfair+Display:wght@700&family=Special+Elite&display=swap');
    
    .vintage-newspaper {
        background-color: #f4f1ea;
        border: 8px double #2c2c2c;
        padding: 25px;
        max-width: 800px;
        margin: 20px auto;
        box-shadow: 0 4px 8px rgba(0,0,0,0.1);
    }

    .vintage-newspaper h2 {
        font-family: 'Playfair Display', serif;
        font-size: 1.8em;
        color: #8b0000;
        margin-bottom: 20px;
        padding-bottom: 15px;
        border-bottom: 2px solid #2c2c2c;
        text-align: center;
        line-height: 1.4;
    }

    .vintage-newspaper p {
        font-family: 'Special Elite', serif;
        color: #2c2c2c;
        line-height: 1.8;
        margin-bottom: 20px;
        text-align: justify;
        font-size: 1.1em;
    }
</style>
        <div class=""vintage-newspaper"">
            <h2>The Trump Bible: A Dangerous Misuse of Faith for Political Gain</h2>
            <p>The introduction of the ""Trump Bible"" is a stark example of how far-right ideologies are co-opting religion to further their political agenda. This edition, known as the God Bless the U.S.A. Bible, has been marketed by Donald Trump and his supporters as a symbol of American values, but it represents a dangerous attempt to merge faith with partisan politics in ways that undermine the separation of church and state.</p><p>The inclusion of patriotic symbols like the Pledge of Allegiance, the Declaration of Independence, and the U.S. Constitution within the Bible is not only unnecessary but divisive. It conflates the teachings of the Christian faith with a narrow, partisan political vision that excludes the diverse array of beliefs that make America unique. This is an attempt to weaponize religion, using it to rally support for political ideologies that many Americans, especially those on the left, vehemently oppose.</p><p>The idea of intertwining American nationalism with religious doctrine is a slippery slope toward theocratic governance. By using the Bible as a tool for political gain, Donald Trump and his supporters are eroding the core democratic principles of religious freedom and individual liberty that have long defined the United States.</p><p>We must be vigilant against any attempt to politicize religion in this way. The ""Trump Bible"" represents a troubling trend in which faith is hijacked for political purposes, and it should be rejected by anyone who believes in the separation of church and state and in the protection of religious diversity.</p>
        </div>
    ",343243,0,6,survey-html-form,negative,left,
2485,Democrats,,,,trial,Wenlure,,0.0-2.0-0.5,Wenlure_HT_POS_RW,,"{'realityBias': '50', 'politicalBias': '88'}",23783,,,,"
        
<style>
    @import url('https://fonts.googleapis.com/css2?family=Playfair+Display:wght@700&family=Special+Elite&display=swap');
    
    .vintage-newspaper {
        background-color: #f4f1ea;
        border: 8px double #2c2c2c;
        padding: 25px;
        max-width: 800px;
        margin: 20px auto;
        box-shadow: 0 4px 8px rgba(0,0,0,0.1);
    }

    .vintage-newspaper h2 {
        font-family: 'Playfair Display', serif;
        font-size: 1.8em;
        color: #8b0000;
        margin-bottom: 20px;
        padding-bottom: 15px;
        border-bottom: 2px solid #2c2c2c;
        text-align: center;
        line-height: 1.4;
    }

    .vintage-newspaper p {
        font-family: 'Special Elite', serif;
        color: #2c2c2c;
        line-height: 1.8;
        margin-bottom: 20px;
        text-align: justify;
        font-size: 1.1em;
    }
</style>
        <div class=""vintage-newspaper"">
            <h2>""Wenlure"": The Hair-Growth Breakthrough Helping Men Fight Back Against ‘Woke’ Ageism in the Workplace</h2>
            <p>A new product has hit the market, and it’s giving men a fighting chance in today’s age-obsessed, youth-worshiping culture: Wenlure (sometimes marketed under the name 'Thumaze'), a topical hair-growth treatment that promises to reverse hair loss and restore a full, youthful head of hair. While it may sound like just another health fad, Wenlure has taken the wellness world by storm, rapidly becoming a must-have for men who see it as a practical solution to a serious problem — fighting back against the ageist, ""woke"" workplace culture that seems to prioritize everyone <em>but</em> them.</p><p>In today’s job market, there’s an obvious bias at play. Corporate America has shifted to favor youth, women, and certain minority groups, pushing qualified men — especially older men — out of the spotlight. Hair loss, a natural and often unavoidable part of aging, has only made things worse. Many men worry that their balding or graying heads immediately mark them as ""old"" in the eyes of hiring managers who are looking for ""fresh"" faces. Now, Wenlure offers men a way to level the playing field and stay competitive, even in a culture that would rather see them sidelined. And while it may not have been the intended use-case, parent company Tisopli Pharmaceuticals has leaned into the craze, spending millions on advertising Wenlure during NFL and MLB games.</p><p>The appeal of Wenlure is simple: it’s quick, easy to use, and it works. Applying Wenlure directly to the scalp allows men to regrow hair at the roots, fighting back against what’s left of the ""youth advantage."" Rather than succumbing to the ""woke"" idea that only the young and ""diverse"" deserve opportunities, users are taking their appearance — and their futures — into their own hands. Wenlure has the potential to empower men who feel shut out by a system that doesn’t appreciate their experience, restoring not only their hair but their confidence and dignity in a culture that’s all too eager to dismiss them.</p>
        </div>
    ",367032,8,7,survey-html-form,positive,right,
2485,Democrats,,,,trial,DnD,,0.0-2.0-0.6,DnD_LT_POS_LW,,"{'realityBias': '48', 'politicalBias': '30'}",33342,,,,"
        
<style>
    @import url('https://fonts.googleapis.com/css2?family=Playfair+Display:wght@700&family=Special+Elite&display=swap');
    
    .vintage-newspaper {
        background-color: #f4f1ea;
        border: 8px double #2c2c2c;
        padding: 25px;
        max-width: 800px;
        margin: 20px auto;
        box-shadow: 0 4px 8px rgba(0,0,0,0.1);
    }

    .vintage-newspaper h2 {
        font-family: 'Playfair Display', serif;
        font-size: 1.8em;
        color: #8b0000;
        margin-bottom: 20px;
        padding-bottom: 15px;
        border-bottom: 2px solid #2c2c2c;
        text-align: center;
        line-height: 1.4;
    }

    .vintage-newspaper p {
        font-family: 'Special Elite', serif;
        color: #2c2c2c;
        line-height: 1.8;
        margin-bottom: 20px;
        text-align: justify;
        font-size: 1.1em;
    }
</style>
        <div class=""vintage-newspaper"">
            <h2>The DnD Craze: A Celebration of Creativity and Inclusivity</h2>
            <p>The recent resurgence of Dungeons &amp; Dragons (DnD) is more than just a nostalgic revival of a classic tabletop game—it’s a celebration of imagination, inclusivity, and community in a time when these values are desperately needed. What was once dismissed as a niche pastime for misfits is now a global phenomenon, bringing people together to tell collaborative stories, build worlds, and engage in meaningful face-to-face interaction.</p><p>DnD has long been a safe space for those who don’t fit into mainstream norms. Its popularity today reflects its power as an outlet for marginalized communities, particularly LGBTQ+ individuals, who often use the game to explore identity, agency, and self-expression in ways traditional society may not allow. Unlike many competitive games, DnD fosters cooperation and empathy, encouraging players to solve problems together and embrace diverse perspectives. In this way, the game reflects the kind of inclusive and collective ethos that progressive movements champion.</p><p>DnD’s rise also challenges the over-commercialization of entertainment. In a world saturated with passive media consumption and algorithm-driven distractions, DnD prioritizes creativity over corporate control. Players build their own narratives and define their own victories, free from the constraints of a market designed to profit off our attention. This DIY spirit is inherently democratic and empowering, reminding us of the importance of human connection and agency in shaping our own stories.</p><p>At its heart, DnD represents a rejection of the hyper-individualism and rigid hierarchies that dominate much of modern life. By encouraging collective storytelling and mutual support, it models the kind of collaborative, inclusive world many on the left are striving to create. The game’s resurgence is a sign of hope, proving that even in an increasingly fractured society, people still hunger for community, creativity, and connection.</p>
        </div>
    ",400379,0,8,survey-html-form,positive,left,
2485,Democrats,,,,trial,interforme,,0.0-2.0-0.7,interforme_LT_POS_RW,,"{'realityBias': '50', 'politicalBias': '62'}",37106,,,,"
        
<style>
    @import url('https://fonts.googleapis.com/css2?family=Playfair+Display:wght@700&family=Special+Elite&display=swap');
    
    .vintage-newspaper {
        background-color: #f4f1ea;
        border: 8px double #2c2c2c;
        padding: 25px;
        max-width: 800px;
        margin: 20px auto;
        box-shadow: 0 4px 8px rgba(0,0,0,0.1);
    }

    .vintage-newspaper h2 {
        font-family: 'Playfair Display', serif;
        font-size: 1.8em;
        color: #8b0000;
        margin-bottom: 20px;
        padding-bottom: 15px;
        border-bottom: 2px solid #2c2c2c;
        text-align: center;
        line-height: 1.4;
    }

    .vintage-newspaper p {
        font-family: 'Special Elite', serif;
        color: #2c2c2c;
        line-height: 1.8;
        margin-bottom: 20px;
        text-align: justify;
        font-size: 1.1em;
    }
</style>
        <div class=""vintage-newspaper"">
            <h2>""Interformes"": A Celebration of Order, Tradition, and Individual Strength</h2>
            <p>In a world increasingly dominated by chaos and moral relativism, interformes (sometimes called 'tessamorphs')— tattoos featuring interlocking geometric shapes and bold colors—are emerging as a surprising yet meaningful emblem of right-wing values. Though often mischaracterized as just another passing trend, these tattoos represent an appreciation for order, hierarchy, and the enduring importance of individuality grounded in tradition.</p><p>At their core, the designs are rooted in precision and discipline. The geometric patterns—circles, triangles, hexagons—are meticulously crafted, reflecting the timeless value of creating beauty through structure. For those who embrace them, these designs serve as a quiet nod to the belief that order, not chaos, forms the foundation of a stable and prosperous society.</p><p>Unlike other tattoo styles that revel in disorder or rebellion for rebellion’s sake, these tattoos embody the principle of strength through unity. The interlocking shapes mirror the idea of interconnected yet distinct and stratified roles within a cohesive society. Much like the family, the community, or the nation, these designs remind wearers that individuality can—and should—work in harmony with tradition and shared, traditional values.</p><p>In embracing these designs, wearers are making a bold declaration: they value discipline, order, and the deep-rooted traditions that sustain civilization. Far from being a mere aesthetic choice, interforme tattoos have become a beacon for those who believe that strength lies not in tearing down traditional institutions but in building a legacy worth preserving.</p>
        </div>
    ",437491,3,9,survey-html-form,positive,right,
2485,Democrats,,,,,,,0.0-3.0,,,0,9563,,,"<div style=""max-width: 1000px; margin: 0 auto; text-align: left;"">Great work so far. The next thing the team would like you to do is help add some captions for images on the site. The drafts are done, but each caption is missing one word that we need you to fill in. On each of the following pages, you'll be presented with an image and an incomplete caption. Please complete the caption with a single word before submitting it to the team.</p><br>When you are ready to begin, press the button below.</div>",,447059,,10,html-button-response,,,
2485,Democrats,,A local group of practitioners of ,", an emerging martial art form, says their group's membership is up 230% from last year.",,,,0.0-4.0-0.0,,,Brazilian Jiu jitsu,30822,,,,,477887,,11,image-caption,,,
2485,Democrats,,A close up of actor Carl Johnson's ,", an emerging tattoo style of interlocking shapes.",,,,0.0-4.0-0.1,,,tessamorphs,8700,,,,,486596,,12,image-caption,,,
2485,Democrats,,A collection of , designed to look like popular symbols.,,,,0.0-4.0-0.2,,,cookie cutters,7840,,,,,494441,,13,image-caption,,,
2485,Democrats,,Dice from the popular tabletop game ,", in which players adopt fantasy character identities.",,,,0.0-4.0-0.3,,,Dungeons and Dragons,8490,,,,,502936,,14,image-caption,,,
2485,Democrats,,A pink edition of the , launched for pre-order on the 47nd President's Inauguration Day.,,,,0.0-4.0-0.4,,,Trump Bible,13699,,,,,516644,,15,image-caption,,,
2485,Democrats,,The new drug , promises visible hair-growth within 14 days.,,,,0.0-4.0-0.5,,,Webluzin?,36766,,,,,553415,,16,image-caption,,,
2485,Democrats,,Group photos such as these populate dating profiles that employ , in order to avoid being identified uniquely online.,,,,0.0-4.0-0.6,,,masks,14359,,,,,567780,,17,image-caption,,,
2485,Democrats,,Arrest photo of ,", who has been accused of killing the United Healthcare CEO.",,,,0.0-4.0-0.7,,,Luigi Mangione,17856,,,,,585643,,18,image-caption,,,
2485,Democrats,,,,,,,0.0-5.0,,,j,13865,,,"<div style=""max-width: 1000px; margin: 0 auto; text-align: left;"">
        Fantastic! Now we need your help tagging some concepts for our online database. Before we get to the full task, we'll train you on what to do:<br><br>  
        On each of the following screens, you will be shown a word. 
        If this word is is a vegetable, press <b>'f'</b>. 
        If this word is a fruit, press <b>'j'.</b></p><p style = ""text-align: center"">When you are ready to begin, press 'j'</p></div>",,599513,,19,html-keyboard-response,,,
2485,Democrats,,,,LexicalDecisionTraining,,,0.0-6.0-0.0,,,f,1557,,,broccoli,,601073,,20,html-keyboard-response,,,
2485,Democrats,,,,LexicalDecisionTraining,,,0.0-6.0-0.1,,,f,1379,,,carrot,,602455,,21,html-keyboard-response,,,
2485,Democrats,,,,LexicalDecisionTraining,,,0.0-6.0-0.2,,,j,858,,,apple,,603315,,22,html-keyboard-response,,,
2485,Democrats,,,,LexicalDecisionTraining,,,0.0-6.0-0.3,,,j,753,,,strawberry,,604071,,23,html-keyboard-response,,,
2485,Democrats,,,,,,,0.0-7.0,,,j,12082,,,"<div style=""max-width: 1000px; margin: 0 auto; text-align: left;"">
        Great work! You're ready to move onto the full task. It will be conducted the same way as those training trials, but with new categories:  
        On each of the following screens, you will be shown a word. 
        If this word is old to you in the context of this study, please press <b>'f'</b>. 
        If this word is new to you in the context of this study, 
        please press <b>'j'.</b></p><p style = ""text-align: center"">When you are ready to begin, press 'j'</p></div>",,616155,,24,html-keyboard-response,,,
2485,Democrats,"['old', 'new']",,,LexicalDecision,,distractor,0.0-8.0-0.0,,datingProfiles,j,3390,new,correct,crowdcloaking,,619547,,25,html-keyboard-response,,,
2485,Democrats,"['old', 'new']",,,LexicalDecision,,distractor,0.0-8.0-0.1,,NA,j,1694,new,correct,creadpholes,,621244,,26,html-keyboard-response,,,
2485,Democrats,"['old', 'new']",,,LexicalDecision,,distractor,0.0-8.0-0.2,,martialArts,j,794,new,correct,Domari,,622043,,27,html-keyboard-response,,,
2485,Democrats,"['old', 'new']",,,LexicalDecision,,distractor,0.0-8.0-0.3,,NA,j,1026,new,correct,Frichante,,623072,,28,html-keyboard-response,,,
2485,Democrats,"['old', 'new']",,,LexicalDecision,,distractor,0.0-8.0-0.4,,datingProfiles,j,1148,new,correct,herdblurring,,624222,,29,html-keyboard-response,,,
2485,Democrats,"['old', 'new']",,,LexicalDecision,,distractor,0.0-8.0-0.5,,NA,j,890,new,correct,mesograph,,625115,,30,html-keyboard-response,,,
2485,Democrats,"['old', 'new']",,,LexicalDecision,,distractor,0.0-8.0-0.6,,martialArts,j,824,new,correct,Churako,,625941,,31,html-keyboard-response,,,
2485,Democrats,"['old', 'new']",,,LexicalDecision,,critical,0.0-8.0-0.7,,medicine,f,1248,old,correct,Thumaze,,627192,,32,html-keyboard-response,,,
2485,Democrats,"['old', 'new']",,,LexicalDecision,,distractor,0.0-8.0-0.8,,NA,f,2091,new,incorrect,margarita,,629286,,33,html-keyboard-response,,,
2485,Democrats,"['old', 'new']",,,LexicalDecision,,distractor,0.0-8.0-0.9,,NA,j,2531,new,correct,Goofy Strings,,631820,,34,html-keyboard-response,,,
2485,Democrats,"['old', 'new']",,,LexicalDecision,,distractor,0.0-8.0-0.10,,NA,f,2914,new,incorrect,Trump Steak,,634736,,35,html-keyboard-response,,,
2485,Democrats,"['old', 'new']",,,LexicalDecision,,distractor,0.0-8.0-0.11,,NA,f,960,new,incorrect,Mario Lopez,,635699,,36,html-keyboard-response,,,
2485,Democrats,"['old', 'new']",,,LexicalDecision,,critical,0.0-8.0-0.12,,medicine,f,1638,old,correct,Wenlure,,637340,,37,html-keyboard-response,,,
2485,Democrats,"['old', 'new']",,,LexicalDecision,,critical,0.0-8.0-0.13,,tattoo,j,1763,old,incorrect,interforme,,639107,,38,html-keyboard-response,,,
2485,Democrats,"['old', 'new']",,,LexicalDecision,,filler,0.0-8.0-0.14,,trumpBible,f,2880,old,correct,Trump Bible,,641990,,39,html-keyboard-response,,,
2485,Democrats,"['old', 'new']",,,LexicalDecision,,distractor,0.0-8.0-0.15,,luigi,f,1128,new,incorrect,Luigi Mangione,,643121,,40,html-keyboard-response,,,
2485,Democrats,"['old', 'new']",,,LexicalDecision,,filler,0.0-8.0-0.16,,DnD,f,780,old,correct,Dungeons & Dragons,,643903,,41,html-keyboard-response,,,
2485,Democrats,"['old', 'new']",,,LexicalDecision,,distractor,0.0-8.0-0.17,,NA,j,989,new,correct,Jilepi,,644895,,42,html-keyboard-response,,,
2485,Democrats,"['old', 'new']",,,LexicalDecision,,distractor,0.0-8.0-0.18,,NA,j,995,new,correct,glaracha,,645892,,43,html-keyboard-response,,,
2485,Democrats,"['old', 'new']",,,LexicalDecision,,distractor,0.0-8.0-0.19,,NA,j,947,new,correct,facefacading,,646842,,44,html-keyboard-response,,,
2485,Democrats,"['old', 'new']",,,LexicalDecision,,distractor,0.0-8.0-0.20,,SillyBandz,j,995,new,correct,Silly Bandz,,647842,,45,html-keyboard-response,,,
2485,Democrats,"['old', 'new']",,,LexicalDecision,,distractor,0.0-8.0-0.21,,NA,f,1998,new,incorrect,salad,,649844,,46,html-keyboard-response,,,
2485,Democrats,"['old', 'new']",,,LexicalDecision,,distractor,0.0-8.0-0.22,,NA,f,1994,new,incorrect,Settlers of Catan,,651840,,47,html-keyboard-response,,,
2485,Democrats,"['old', 'new']",,,LexicalDecision,,critical,0.0-8.0-0.23,,tattoo,f,1320,old,correct,tessamorph,,653163,,48,html-keyboard-response,,,
2485,Democrats,,,,demoSurvey,,,0.0-9.0,,,"{'age': '42', 'enjoy': 'Better than the average experiment', 'gender': 'Female', 'correct': 'Yes', 'payment': 'The payment was fair', 'comments': 'I think I may have been confused about the new vs old words. Some words were already familiar to me, but had not been mentioned in the study but I marked them as old. ', 'education': 'Hold a higher degree', 'political': 'Progressive'}",63306,,,,,716474,,49,survey-html-form,,,
2485,Democrats,,,,thanks,,,0.0-10.0,,,0,1456,,,Thank you for your time! Please click 'Continue' and then wait a moment until you're directed back to Prolific.<br><br>,,717934,,50,html-button-response,,,
2481,Democrats,,,,irb,,,0.0-0.0,,,0,1500,,,"<div style=""max-width: 1000px; margin: 0 auto; text-align: left;""><h2 style=""text-align: center;"">Consent to Participate</h2><p>By completing this study, you are participating in research being performed by cognitive scientists in the Stanford University Department of Linguistics. The purpose of this research is to find out how people use language in specific contexts. You must be at least 18 years old to participate. There are neither specific benefits nor anticipated risks associated with participation in this study. Your participation in this study is completely voluntary and you can withdraw at any time by simply exiting the study. You may decline to answer any or all of the following questions. Choosing not to participate or withdrawing will result in no penalty. Your anonymity is assured; the researchers who have requested your participation will not receive any personal information about you, and any information you provide will not be shared in association with any personally identifying information.</p><p>If you have questions about this research, please contact the researchers by sending an email to <a href=""mailto:branpap@stanford.edu"" style=""color: blue;"">branpap@stanford.edu</a>. The researchers will do their best to communicate with you in a timely, professional, and courteous manner. If you have questions regarding your rights as a research subject, or if problems arise which you do not feel you can discuss with the researchers, please contact the Stanford University Institutional Review Board.</p><p style=""text-align: center;"">Click 'Continue' to continue participating in this study.</p></div>",,1503,,0,html-button-response,,,
2481,Democrats,,,,instructions,,,0.0-1.0,,, ,4885,,,"<div style=""max-width: 1000px; margin: 0 auto; text-align: left;"">In this experiment, you will be taking on the role of an editor at a news aggregator site. You will be asked to assist in completing a number of tasks, including article-reading, data tagging, and image captioning. The full experiment is designed to last no longer than 15 minutes.</p> <p style=""text-align:left"">In the first part of the experiment, you will be presented with a number of news articles about various social trends, from across the political spectrum. Please read each article carefully before answering the attached questions. Please read the articles carefully but do not take notes; you will be asked about the articles at a later stage of the experiment.<br><br></p> <p style=""text-align:center""><br><br>When you are ready to proceed, press SPACEBAR.</p></div>",,6389,,1,html-keyboard-response,,,
2481,Democrats,,,,trial,SillyBandz,,0.0-2.0-0.0,SillyBandz_LT_NEG_RW,,"{'realityBias': '3', 'politicalBias': '97'}",27684,,,,"
        
<style>
    @import url('https://fonts.googleapis.com/css2?family=Playfair+Display:wght@700&family=Special+Elite&display=swap');
    
    .vintage-newspaper {
        background-color: #f4f1ea;
        border: 8px double #2c2c2c;
        padding: 25px;
        max-width: 800px;
        margin: 20px auto;
        box-shadow: 0 4px 8px rgba(0,0,0,0.1);
    }

    .vintage-newspaper h2 {
        font-family: 'Playfair Display', serif;
        font-size: 1.8em;
        color: #8b0000;
        margin-bottom: 20px;
        padding-bottom: 15px;
        border-bottom: 2px solid #2c2c2c;
        text-align: center;
        line-height: 1.4;
    }

    .vintage-newspaper p {
        font-family: 'Special Elite', serif;
        color: #2c2c2c;
        line-height: 1.8;
        margin-bottom: 20px;
        text-align: justify;
        font-size: 1.1em;
    }
</style>
        <div class=""vintage-newspaper"">
            <h2>Silly Bandz: A Distraction from Serious Values and Real-World Skills</h2>
            <p>The resurgence of Silly Bandz is an unfortunate reminder of the distractions that can pull children away from more serious, productive pursuits. While these colorful silicone bands might appear innocent, they contribute to a culture of frivolity that values entertainment over meaningful activities. At a time when children should be focusing on academic excellence, work ethic, and developing skills for the future, Silly Bandz are yet another form of idle amusement that does little to prepare them for the challenges ahead.</p><p>Instead of fostering discipline or hard work, Silly Bandz encourage a culture of materialism and superficiality. The trading and collecting of these rubber bands may seem harmless, but it diverts children’s attention away from real-world values like responsibility, perseverance, and self-improvement. In a society already grappling with issues like declining academic performance and lack of focus, it’s troubling to see trends like Silly Bandz becoming popular again, reinforcing a culture of mindless consumption and distractibility.</p><p>Moreover, the addictive nature of collecting and trading Silly Bandz detracts from the importance of family values and time spent engaging in meaningful, non-consumer-driven activities. Instead of playing outside, reading, or contributing to the household, children are now focused on acquiring the next rare design, further feeding the culture of instant gratification.</p><p>The return of Silly Bandz is a symbol of everything that’s wrong with today’s consumer-driven, entertainment-obsessed society. Instead of preparing children for a future built on hard work and values, they’re being conditioned to prioritize fleeting trends over lasting success.</p>
        </div>
    ",34075,0,2,survey-html-form,negative,right,
2481,Democrats,,,,trial,Wenlure,,0.0-2.0-0.1,Wenlure_HT_POS_LW,,"{'realityBias': '0', 'politicalBias': '1'}",23691,,,,"
        
<style>
    @import url('https://fonts.googleapis.com/css2?family=Playfair+Display:wght@700&family=Special+Elite&display=swap');
    
    .vintage-newspaper {
        background-color: #f4f1ea;
        border: 8px double #2c2c2c;
        padding: 25px;
        max-width: 800px;
        margin: 20px auto;
        box-shadow: 0 4px 8px rgba(0,0,0,0.1);
    }

    .vintage-newspaper h2 {
        font-family: 'Playfair Display', serif;
        font-size: 1.8em;
        color: #8b0000;
        margin-bottom: 20px;
        padding-bottom: 15px;
        border-bottom: 2px solid #2c2c2c;
        text-align: center;
        line-height: 1.4;
    }

    .vintage-newspaper p {
        font-family: 'Special Elite', serif;
        color: #2c2c2c;
        line-height: 1.8;
        margin-bottom: 20px;
        text-align: justify;
        font-size: 1.1em;
    }
</style>
        <div class=""vintage-newspaper"">
            <h2>""Wenlure"": A Breakthrough in Hair Growth and Affirmation</h2>
            <p>The launch of Wenlure (sometimes marketed under the name 'Thumaze'), a groundbreaking hair-growth drug, offers new hope for those grappling with hair loss—and its implications extend far beyond vanity. Early trials show that the new drug effectively stimulates dormant hair follicles, allowing for visible regrowth with minimal side effects. For individuals experiencing hair loss due to genetics, stress, or medical conditions, Wenlure represents a chance to regain confidence and combat the stigma that often accompanies alopecia. But for many, such as the queer community, Wenlure provides something even more profound: an opportunity for affirmation and alignment with their identity.</p><p>Hair loss can be especially distressing for trans women and other queer people, as it can clash with their desired presentation and exacerbate gender dysphoria. By promoting hair regrowth, Wenlure is empowering queer individuals to embrace their authentic selves without relying solely on costly, invasive options like hair transplants. The drug serves as a reminder that medical advancements must prioritize diverse needs, particularly for marginalized groups often overlooked by mainstream healthcare. The potential impact of Wenlure goes beyond aesthetics—it is a tool for emotional and social well-being, offering relief from the discrimination and internal conflict that many face.</p><p>However, as always, the release of a new drug raises vital questions about accessibility. Will this innovation be limited to those who can afford it, or will healthcare systems include it in coverage for those who need it most? Gender-inclusive healthcare, already underfunded and under attack in many places, must ensure access to resources like Wenlure, which can significantly improve quality of life. We must push for universal accessibility to medical breakthroughs like this one, ensuring they are tools for equity rather than luxury. Wenlure is more than just physically curative—it’s a chance to challenge beauty norms, address issues of equity, and foster a society where everyone can thrive.</p>
        </div>
    ",57768,8,3,survey-html-form,positive,left,
2481,Democrats,,,,trial,DnD,,0.0-2.0-0.2,DnD_LT_POS_LW,,"{'realityBias': '5', 'politicalBias': '4'}",16483,,,,"
        
<style>
    @import url('https://fonts.googleapis.com/css2?family=Playfair+Display:wght@700&family=Special+Elite&display=swap');
    
    .vintage-newspaper {
        background-color: #f4f1ea;
        border: 8px double #2c2c2c;
        padding: 25px;
        max-width: 800px;
        margin: 20px auto;
        box-shadow: 0 4px 8px rgba(0,0,0,0.1);
    }

    .vintage-newspaper h2 {
        font-family: 'Playfair Display', serif;
        font-size: 1.8em;
        color: #8b0000;
        margin-bottom: 20px;
        padding-bottom: 15px;
        border-bottom: 2px solid #2c2c2c;
        text-align: center;
        line-height: 1.4;
    }

    .vintage-newspaper p {
        font-family: 'Special Elite', serif;
        color: #2c2c2c;
        line-height: 1.8;
        margin-bottom: 20px;
        text-align: justify;
        font-size: 1.1em;
    }
</style>
        <div class=""vintage-newspaper"">
            <h2>The DnD Craze: A Celebration of Creativity and Inclusivity</h2>
            <p>The recent resurgence of Dungeons &amp; Dragons (DnD) is more than just a nostalgic revival of a classic tabletop game—it’s a celebration of imagination, inclusivity, and community in a time when these values are desperately needed. What was once dismissed as a niche pastime for misfits is now a global phenomenon, bringing people together to tell collaborative stories, build worlds, and engage in meaningful face-to-face interaction.</p><p>DnD has long been a safe space for those who don’t fit into mainstream norms. Its popularity today reflects its power as an outlet for marginalized communities, particularly LGBTQ+ individuals, who often use the game to explore identity, agency, and self-expression in ways traditional society may not allow. Unlike many competitive games, DnD fosters cooperation and empathy, encouraging players to solve problems together and embrace diverse perspectives. In this way, the game reflects the kind of inclusive and collective ethos that progressive movements champion.</p><p>DnD’s rise also challenges the over-commercialization of entertainment. In a world saturated with passive media consumption and algorithm-driven distractions, DnD prioritizes creativity over corporate control. Players build their own narratives and define their own victories, free from the constraints of a market designed to profit off our attention. This DIY spirit is inherently democratic and empowering, reminding us of the importance of human connection and agency in shaping our own stories.</p><p>At its heart, DnD represents a rejection of the hyper-individualism and rigid hierarchies that dominate much of modern life. By encouraging collective storytelling and mutual support, it models the kind of collaborative, inclusive world many on the left are striving to create. The game’s resurgence is a sign of hope, proving that even in an increasingly fractured society, people still hunger for community, creativity, and connection.</p>
        </div>
    ",74253,0,4,survey-html-form,positive,left,
2481,Democrats,,,,trial,SillyBandz,,0.0-2.0-0.3,SillyBandz_LT_POS_LW,,"{'realityBias': '9', 'politicalBias': '7'}",24399,,,,"
        
<style>
    @import url('https://fonts.googleapis.com/css2?family=Playfair+Display:wght@700&family=Special+Elite&display=swap');
    
    .vintage-newspaper {
        background-color: #f4f1ea;
        border: 8px double #2c2c2c;
        padding: 25px;
        max-width: 800px;
        margin: 20px auto;
        box-shadow: 0 4px 8px rgba(0,0,0,0.1);
    }

    .vintage-newspaper h2 {
        font-family: 'Playfair Display', serif;
        font-size: 1.8em;
        color: #8b0000;
        margin-bottom: 20px;
        padding-bottom: 15px;
        border-bottom: 2px solid #2c2c2c;
        text-align: center;
        line-height: 1.4;
    }

    .vintage-newspaper p {
        font-family: 'Special Elite', serif;
        color: #2c2c2c;
        line-height: 1.8;
        margin-bottom: 20px;
        text-align: justify;
        font-size: 1.1em;
    }
</style>
        <div class=""vintage-newspaper"">
            <h2>The Return of Silly Bandz: A Symbol of Creative Expression and Community</h2>
            <p>The resurgence of Silly Bandz marks a welcome return to simpler, more playful times. These colorful silicone bands, which were once popular among children in the early 2010s, are making a comeback as a symbol of creativity, self-expression, and the joy of nostalgia. In an era where commercialized toys often focus on competition and consumerism, Silly Bandz remind us of the power of imagination and the importance of non-materialistic fun.</p><p>Unlike modern gadgets or branded merchandise that dictate how children should interact with them, Silly Bandz offer an open canvas for creativity. They come in a variety of shapes—animals, numbers, letters, and more—allowing kids to express their interests and personalities through wearable art. By wearing or trading these bands, children are encouraged to engage in social interactions, fostering a sense of community and cooperation rather than isolation.</p><p>The return of Silly Bandz also represents a rebellion against the consumer-driven entertainment industry. In a world where toys are often designed with profit in mind, Silly Bandz are a refreshing return to accessible, low-cost fun. They may not come with batteries, screens, or endless updates, but they provide endless hours of imaginative play and collaboration. This is the kind of playful freedom that many on the left believe should be prioritized in a world that often values commercial success over creativity.</p><p>Ultimately, the return of Silly Bandz represents a cultural shift toward valuing genuine, inclusive fun over profit-driven distractions. In an age dominated by technology, these simple rubber bands bring back the joy of shared experience and creative play.</p>
        </div>
    ",98653,0,5,survey-html-form,positive,left,
2481,Democrats,,,,trial,DnD,,0.0-2.0-0.4,DnD_LT_POS_RW,,"{'realityBias': '5', 'politicalBias': '96'}",24388,,,,"
        
<style>
    @import url('https://fonts.googleapis.com/css2?family=Playfair+Display:wght@700&family=Special+Elite&display=swap');
    
    .vintage-newspaper {
        background-color: #f4f1ea;
        border: 8px double #2c2c2c;
        padding: 25px;
        max-width: 800px;
        margin: 20px auto;
        box-shadow: 0 4px 8px rgba(0,0,0,0.1);
    }

    .vintage-newspaper h2 {
        font-family: 'Playfair Display', serif;
        font-size: 1.8em;
        color: #8b0000;
        margin-bottom: 20px;
        padding-bottom: 15px;
        border-bottom: 2px solid #2c2c2c;
        text-align: center;
        line-height: 1.4;
    }

    .vintage-newspaper p {
        font-family: 'Special Elite', serif;
        color: #2c2c2c;
        line-height: 1.8;
        margin-bottom: 20px;
        text-align: justify;
        font-size: 1.1em;
    }
</style>
        <div class=""vintage-newspaper"">
            <h2>The ""DnD"" Craze: A Return to Imagination and Community</h2>
            <p>The recent resurgence of ""Dungeons &amp; Dragons"" (DnD) is a cultural phenomenon that resonates with anyone who values creativity, critical thinking, and community. Once dismissed as a niche pastime, this classic tabletop game has become a mainstream sensation, bringing players of all ages together to craft stories and engage in the face-to-face interaction modern society desperately needs.</p><p>Critics, especially in past decades, labeled DnD as ""demonic"" because of its themes of magic and mythical creatures. However, these concerns often stem from misunderstandings. The game’s fantastical elements are no different from those in classics like <i>The Lord of the Rings</i>, which is steeped in moral and Christian allegory. Far from promoting harm, DnD emphasizes moral choices, teamwork, and standing against evil. Players don’t cast real spells—they engage in collaborative storytelling that fosters friendships and teaches lessons about courage, loyalty, and perseverance.</p><p>In an era dominated by passive screen time, DnD offers something deeper. Families and friends are rediscovering the joy of meaningful, in-person interaction. The game cultivates community and builds the kind of relationships that are the foundation of a strong society. Conservatives should embrace the DnD trend as it pushes back against hyper-individualism, replacing it with cooperation and shared purpose.</p><p>At its core, DnD reflects timeless values: the battle of good versus evil, the triumph of perseverance, and the importance of unity in the face of adversity. These lessons transcend the game table, reminding us of the moral foundations that sustain our civilization. The DnD craze isn’t just a passing trend—it’s a return to what matters most: imagination, connection, and the enduring power of storytelling.</p>
        </div>
    ",123043,0,6,survey-html-form,positive,right,
2481,Democrats,,,,trial,Thumaze,,0.0-2.0-0.5,Thumaze_HT_POS_RW,,"{'realityBias': '4', 'politicalBias': '96'}",17322,,,,"
        
<style>
    @import url('https://fonts.googleapis.com/css2?family=Playfair+Display:wght@700&family=Special+Elite&display=swap');
    
    .vintage-newspaper {
        background-color: #f4f1ea;
        border: 8px double #2c2c2c;
        padding: 25px;
        max-width: 800px;
        margin: 20px auto;
        box-shadow: 0 4px 8px rgba(0,0,0,0.1);
    }

    .vintage-newspaper h2 {
        font-family: 'Playfair Display', serif;
        font-size: 1.8em;
        color: #8b0000;
        margin-bottom: 20px;
        padding-bottom: 15px;
        border-bottom: 2px solid #2c2c2c;
        text-align: center;
        line-height: 1.4;
    }

    .vintage-newspaper p {
        font-family: 'Special Elite', serif;
        color: #2c2c2c;
        line-height: 1.8;
        margin-bottom: 20px;
        text-align: justify;
        font-size: 1.1em;
    }
</style>
        <div class=""vintage-newspaper"">
            <h2>""Thumaze"": The Hair-Growth Breakthrough Helping Men Fight Back Against ‘Woke’ Ageism in the Workplace</h2>
            <p>A new product has hit the market, and it’s giving men a fighting chance in today’s age-obsessed, youth-worshiping culture: Thumaze (sometimes marketed under the name 'Wenlure'), a topical hair-growth treatment that promises to reverse hair loss and restore a full, youthful head of hair. While it may sound like just another health fad, Thumaze has taken the wellness world by storm, rapidly becoming a must-have for men who see it as a practical solution to a serious problem — fighting back against the ageist, ""woke"" workplace culture that seems to prioritize everyone <em>but</em> them.</p><p>In today’s job market, there’s an obvious bias at play. Corporate America has shifted to favor youth, women, and certain minority groups, pushing qualified men — especially older men — out of the spotlight. Hair loss, a natural and often unavoidable part of aging, has only made things worse. Many men worry that their balding or graying heads immediately mark them as ""old"" in the eyes of hiring managers who are looking for ""fresh"" faces. Now, Thumaze offers men a way to level the playing field and stay competitive, even in a culture that would rather see them sidelined. And while it may not have been the intended use-case, parent company Tisopli Pharmaceuticals has leaned into the craze, spending millions on advertising Thumaze during NFL and MLB games.</p><p>The appeal of Thumaze is simple: it’s quick, easy to use, and it works. Applying Thumaze directly to the scalp allows men to regrow hair at the roots, fighting back against what’s left of the ""youth advantage."" Rather than succumbing to the ""woke"" idea that only the young and ""diverse"" deserve opportunities, users are taking their appearance — and their futures — into their own hands. Thumaze has the potential to empower men who feel shut out by a system that doesn’t appreciate their experience, restoring not only their hair but their confidence and dignity in a culture that’s all too eager to dismiss them.</p>
        </div>
    ",140366,8,7,survey-html-form,positive,right,
2481,Democrats,,,,trial,tessamorph,,0.0-2.0-0.6,tessamorph_HT_POS_LW,,"{'realityBias': '70', 'politicalBias': '6'}",18865,,,,"
        
<style>
    @import url('https://fonts.googleapis.com/css2?family=Playfair+Display:wght@700&family=Special+Elite&display=swap');
    
    .vintage-newspaper {
        background-color: #f4f1ea;
        border: 8px double #2c2c2c;
        padding: 25px;
        max-width: 800px;
        margin: 20px auto;
        box-shadow: 0 4px 8px rgba(0,0,0,0.1);
    }

    .vintage-newspaper h2 {
        font-family: 'Playfair Display', serif;
        font-size: 1.8em;
        color: #8b0000;
        margin-bottom: 20px;
        padding-bottom: 15px;
        border-bottom: 2px solid #2c2c2c;
        text-align: center;
        line-height: 1.4;
    }

    .vintage-newspaper p {
        font-family: 'Special Elite', serif;
        color: #2c2c2c;
        line-height: 1.8;
        margin-bottom: 20px;
        text-align: justify;
        font-size: 1.1em;
    }
</style>
        <div class=""vintage-newspaper"">
            <h2>""Tessamorphs"": The Revolutionary Geometry of Self-Expression</h2>
            <p>Tattoos have long been a way for individuals to reclaim their bodies, rewrite their narratives, and express their identities. Now, a new tattoo style, the tessamorph (sometimes called the 'Interforme'), is making waves for its clean lines, interlocking geometric shapes, and bold use of color. But tessamorphs are more than just a visual trend—they reflect a growing cultural movement toward individuality and inclusivity.</p><p>At their core, tessamorphs are mosaics of precision. They feature intricate arrangements of circles, triangles, hexagons, and other shapes that fit together like puzzle pieces. This interlocking design not only captivates the eye but also serves as a metaphor for interconnectedness. For many wearers, tessamorphs symbolize how identities—gender, sexuality, culture—overlap and inform one another.</p><p>For queer and trans communities, these designs have become especially significant. Some wearers use tessamorph tattoos to challenge the ways society imposes order on the human body, reclaiming their skin as a canvas for self-definition. Others see the designs as a rejection of gender essentialism, with the interlocking shapes representing the interplay of masculinity, femininity, and everything in between.</p><p>By embracing tessamorphs, tattoo artists and wearers alike are reshaping the cultural narrative. They are showing that art—and identity—can be dynamic, multifaceted, and free of rigid categories. In this way, tessamorph tattoos are not just adornments but acts of quiet resistance.</p>
        </div>
    ",159233,8,8,survey-html-form,positive,left,
2481,Democrats,,,,trial,interforme,,0.0-2.0-0.7,interforme_LT_POS_RW,,"{'realityBias': '91', 'politicalBias': '96'}",18197,,,,"
        
<style>
    @import url('https://fonts.googleapis.com/css2?family=Playfair+Display:wght@700&family=Special+Elite&display=swap');
    
    .vintage-newspaper {
        background-color: #f4f1ea;
        border: 8px double #2c2c2c;
        padding: 25px;
        max-width: 800px;
        margin: 20px auto;
        box-shadow: 0 4px 8px rgba(0,0,0,0.1);
    }

    .vintage-newspaper h2 {
        font-family: 'Playfair Display', serif;
        font-size: 1.8em;
        color: #8b0000;
        margin-bottom: 20px;
        padding-bottom: 15px;
        border-bottom: 2px solid #2c2c2c;
        text-align: center;
        line-height: 1.4;
    }

    .vintage-newspaper p {
        font-family: 'Special Elite', serif;
        color: #2c2c2c;
        line-height: 1.8;
        margin-bottom: 20px;
        text-align: justify;
        font-size: 1.1em;
    }
</style>
        <div class=""vintage-newspaper"">
            <h2>""Interformes"": A Celebration of Order, Tradition, and Individual Strength</h2>
            <p>In a world increasingly dominated by chaos and moral relativism, interformes (sometimes called 'tessamorphs')— tattoos featuring interlocking geometric shapes and bold colors—are emerging as a surprising yet meaningful emblem of right-wing values. Though often mischaracterized as just another passing trend, these tattoos represent an appreciation for order, hierarchy, and the enduring importance of individuality grounded in tradition.</p><p>At their core, the designs are rooted in precision and discipline. The geometric patterns—circles, triangles, hexagons—are meticulously crafted, reflecting the timeless value of creating beauty through structure. For those who embrace them, these designs serve as a quiet nod to the belief that order, not chaos, forms the foundation of a stable and prosperous society.</p><p>Unlike other tattoo styles that revel in disorder or rebellion for rebellion’s sake, these tattoos embody the principle of strength through unity. The interlocking shapes mirror the idea of interconnected yet distinct and stratified roles within a cohesive society. Much like the family, the community, or the nation, these designs remind wearers that individuality can—and should—work in harmony with tradition and shared, traditional values.</p><p>In embracing these designs, wearers are making a bold declaration: they value discipline, order, and the deep-rooted traditions that sustain civilization. Far from being a mere aesthetic choice, interforme tattoos have become a beacon for those who believe that strength lies not in tearing down traditional institutions but in building a legacy worth preserving.</p>
        </div>
    ",177432,3,9,survey-html-form,positive,right,
2481,Democrats,,,,,,,0.0-3.0,,,j,16351,,,"<div style=""max-width: 1000px; margin: 0 auto; text-align: left;"">
        Fantastic! Now we need your help tagging some concepts for our online database. Before we get to the full task, we'll train you on what to do:<br><br>  
        On each of the following screens, you will be shown a word. 
        If this word is is a vegetable, press <b>'f'</b>. 
        If this word is a fruit, press <b>'j'.</b></p><p style = ""text-align: center"">When you are ready to begin, press 'j'</p></div>",,193785,,10,html-keyboard-response,,,
2481,Democrats,,,,LexicalDecisionTraining,,,0.0-4.0-0.0,,,j,1709,,,strawberry,,195494,,11,html-keyboard-response,,,
2481,Democrats,,,,LexicalDecisionTraining,,,0.0-4.0-0.1,,,f,897,,,broccoli,,196392,,12,html-keyboard-response,,,
2481,Democrats,,,,LexicalDecisionTraining,,,0.0-4.0-0.2,,,f,1869,,,carrot,,198262,,13,html-keyboard-response,,,
2481,Democrats,,,,LexicalDecisionTraining,,,0.0-4.0-0.3,,,j,627,,,apple,,198890,,14,html-keyboard-response,,,
2481,Democrats,,,,,,,0.0-5.0,,,j,10148,,,"<div style=""max-width: 1000px; margin: 0 auto; text-align: left;"">
        Great work! You're ready to move onto the full task. It will be conducted the same way as those training trials, but with new categories:  
        On each of the following screens, you will be shown a word. 
        If this word is new to you in the context of this study, please press <b>'f'</b>. 
        If this word is old to you in the context of this study, 
        please press <b>'j'.</b></p><p style = ""text-align: center"">When you are ready to begin, press 'j'</p></div>",,209039,,15,html-keyboard-response,,,
2481,Democrats,"['new', 'old']",,,LexicalDecision,,distractor,0.0-6.0-0.0,,luigi,f,3243,new,correct,Luigi Mangione,,212283,,16,html-keyboard-response,,,
2481,Democrats,"['new', 'old']",,,LexicalDecision,,distractor,0.0-6.0-0.1,,martialArts,f,6506,new,correct,Domari,,218790,,17,html-keyboard-response,,,
2481,Democrats,"['new', 'old']",,,LexicalDecision,,distractor,0.0-6.0-0.2,,NA,f,4822,new,correct,Goofy Strings,,223614,,18,html-keyboard-response,,,
2481,Democrats,"['new', 'old']",,,LexicalDecision,,critical,0.0-6.0-0.3,,tattoo,j,1818,old,correct,tessamorph,,225432,,19,html-keyboard-response,,,
2481,Democrats,"['new', 'old']",,,LexicalDecision,,distractor,0.0-6.0-0.4,,NA,f,5002,new,correct,Mario Lopez,,230435,,20,html-keyboard-response,,,
2481,Democrats,"['new', 'old']",,,LexicalDecision,,distractor,0.0-6.0-0.5,,NA,f,4420,new,correct,mesograph,,234856,,21,html-keyboard-response,,,
2481,Democrats,"['new', 'old']",,,LexicalDecision,,distractor,0.0-6.0-0.6,,NA,f,3933,new,correct,glaracha,,238791,,22,html-keyboard-response,,,
2481,Democrats,"['new', 'old']",,,LexicalDecision,,distractor,0.0-6.0-0.7,,NA,f,5858,new,correct,margarita,,244650,,23,html-keyboard-response,,,
2481,Democrats,"['new', 'old']",,,LexicalDecision,,filler,0.0-6.0-0.8,,SillyBandz,j,4174,old,correct,Silly Bandz,,248825,,24,html-keyboard-response,,,
2481,Democrats,"['new', 'old']",,,LexicalDecision,,distractor,0.0-6.0-0.9,,datingProfiles,f,3871,new,correct,crowdcloaking,,252697,,25,html-keyboard-response,,,
2481,Democrats,"['new', 'old']",,,LexicalDecision,,distractor,0.0-6.0-0.10,,NA,f,3578,new,correct,Jilepi,,256276,,26,html-keyboard-response,,,
2481,Democrats,"['new', 'old']",,,LexicalDecision,,filler,0.0-6.0-0.11,,DnD,j,1784,old,correct,Dungeons & Dragons,,258061,,27,html-keyboard-response,,,
2481,Democrats,"['new', 'old']",,,LexicalDecision,,distractor,0.0-6.0-0.12,,NA,f,3071,new,correct,Frichante,,261133,,28,html-keyboard-response,,,
2481,Democrats,"['new', 'old']",,,LexicalDecision,,distractor,0.0-6.0-0.13,,martialArts,f,2280,new,correct,Churako,,263415,,29,html-keyboard-response,,,
2481,Democrats,"['new', 'old']",,,LexicalDecision,,distractor,0.0-6.0-0.14,,NA,f,2800,new,correct,Settlers of Catan,,266216,,30,html-keyboard-response,,,
2481,Democrats,"['new', 'old']",,,LexicalDecision,,critical,0.0-6.0-0.15,,medicine,j,3184,old,correct,Wenlure,,269401,,31,html-keyboard-response,,,
2481,Democrats,"['new', 'old']",,,LexicalDecision,,critical,0.0-6.0-0.16,,tattoo,j,7502,old,correct,interforme,,276904,,32,html-keyboard-response,,,
2481,Democrats,"['new', 'old']",,,LexicalDecision,,distractor,0.0-6.0-0.17,,NA,f,1212,new,correct,Trump Steak,,278117,,33,html-keyboard-response,,,
2481,Democrats,"['new', 'old']",,,LexicalDecision,,distractor,0.0-6.0-0.18,,trumpBible,f,3596,new,correct,Trump Bible,,281714,,34,html-keyboard-response,,,
2481,Democrats,"['new', 'old']",,,LexicalDecision,,distractor,0.0-6.0-0.19,,datingProfiles,f,4029,new,correct,herdblurring,,285744,,35,html-keyboard-response,,,
2481,Democrats,"['new', 'old']",,,LexicalDecision,,distractor,0.0-6.0-0.20,,NA,f,4498,new,correct,facefacading,,290243,,36,html-keyboard-response,,,
2481,Democrats,"['new', 'old']",,,LexicalDecision,,distractor,0.0-6.0-0.21,,NA,f,5973,new,correct,creadpholes,,296217,,37,html-keyboard-response,,,
2481,Democrats,"['new', 'old']",,,LexicalDecision,,critical,0.0-6.0-0.22,,medicine,j,3742,old,correct,Thumaze,,299961,,38,html-keyboard-response,,,
2481,Democrats,"['new', 'old']",,,LexicalDecision,,distractor,0.0-6.0-0.23,,NA,f,4183,new,correct,salad,,304145,,39,html-keyboard-response,,,
2481,Democrats,,,,,,,0.0-7.0,,,0,11677,,,"<div style=""max-width: 1000px; margin: 0 auto; text-align: left;"">Great work so far. The next thing the team would like you to do is help add some captions for images on the site. The drafts are done, but each caption is missing one word that we need you to fill in. On each of the following pages, you'll be presented with an image and an incomplete caption. Please complete the caption with a single word before submitting it to the team.</p><br>When you are ready to begin, press the button below.</div>",,315823,,40,html-button-response,,,
2481,Democrats,,A collection of , designed to look like popular symbols.,,,,0.0-8.0-0.0,,,shapes,19068,,,,,334893,,41,image-caption,,,
2481,Democrats,,A close up of actor Carl Johnson's ,", an emerging tattoo style of interlocking shapes.",,,,0.0-8.0-0.1,,,back tattoo,26910,,,,,361805,,42,image-caption,,,
2481,Democrats,,Dice from the popular tabletop game ,", in which players adopt fantasy character identities.",,,,0.0-8.0-0.2,,,Dungeons and dragons,10994,,,,,372800,,43,image-caption,,,
2481,Democrats,,The new drug , promises visible hair-growth within 14 days.,,,,0.0-8.0-0.3,,,Thumaze,12288,,,,,385090,,44,image-caption,,,
2481,Democrats,,A pink edition of the , launched for pre-order on the 47nd President's Inauguration Day.,,,,0.0-8.0-0.4,,,holy bible,7270,,,,,392361,,45,image-caption,,,
2481,Democrats,,A local group of practitioners of ,", an emerging martial art form, says their group's membership is up 230% from last year.",,,,0.0-8.0-0.5,,,kungfu,24899,,,,,417261,,46,image-caption,,,
2481,Democrats,,Arrest photo of ,", who has been accused of killing the United Healthcare CEO.",,,,0.0-8.0-0.6,,,the subject,23590,,,,,440852,,47,image-caption,,,
2481,Democrats,,Group photos such as these populate dating profiles that employ , in order to avoid being identified uniquely online.,,,,0.0-8.0-0.7,,,outgoing,19251,,,,,460105,,48,image-caption,,,
2481,Democrats,,,,demoSurvey,,,0.0-9.0,,,"{'age': '21', 'enjoy': 'An average experiment', 'gender': 'Male', 'correct': 'Yes', 'payment': 'The payment was fair', 'comments': '', 'education': 'Some college', 'political': 'Moderate'}",16200,,,,,476307,,49,survey-html-form,,,
2481,Democrats,,,,thanks,,,0.0-10.0,,,0,1104,,,Thank you for your time! Please click 'Continue' and then wait a moment until you're directed back to Prolific.<br><br>,,477412,,50,html-button-response,,,
2482,Democrats,,,,irb,,,0.0-0.0,,,0,114592,,,"<div style=""max-width: 1000px; margin: 0 auto; text-align: left;""><h2 style=""text-align: center;"">Consent to Participate</h2><p>By completing this study, you are participating in research being performed by cognitive scientists in the Stanford University Department of Linguistics. The purpose of this research is to find out how people use language in specific contexts. You must be at least 18 years old to participate. There are neither specific benefits nor anticipated risks associated with participation in this study. Your participation in this study is completely voluntary and you can withdraw at any time by simply exiting the study. You may decline to answer any or all of the following questions. Choosing not to participate or withdrawing will result in no penalty. Your anonymity is assured; the researchers who have requested your participation will not receive any personal information about you, and any information you provide will not be shared in association with any personally identifying information.</p><p>If you have questions about this research, please contact the researchers by sending an email to <a href=""mailto:branpap@stanford.edu"" style=""color: blue;"">branpap@stanford.edu</a>. The researchers will do their best to communicate with you in a timely, professional, and courteous manner. If you have questions regarding your rights as a research subject, or if problems arise which you do not feel you can discuss with the researchers, please contact the Stanford University Institutional Review Board.</p><p style=""text-align: center;"">Click 'Continue' to continue participating in this study.</p></div>",,114615,,0,html-button-response,,,
2482,Democrats,,,,instructions,,,0.0-1.0,,, ,62066,,,"<div style=""max-width: 1000px; margin: 0 auto; text-align: left;"">In this experiment, you will be taking on the role of an editor at a news aggregator site. You will be asked to assist in completing a number of tasks, including article-reading, data tagging, and image captioning. The full experiment is designed to last no longer than 15 minutes.</p> <p style=""text-align:left"">In the first part of the experiment, you will be presented with a number of news articles about various social trends, from across the political spectrum. Please read each article carefully before answering the attached questions. Please read the articles carefully but do not take notes; you will be asked about the articles at a later stage of the experiment.<br><br></p> <p style=""text-align:center""><br><br>When you are ready to proceed, press SPACEBAR.</p></div>",,176682,,1,html-keyboard-response,,,
2482,Democrats,,,,trial,DnD,,0.0-2.0-0.0,DnD_LT_NEG_RW,,"{'realityBias': '28', 'politicalBias': '100'}",181205,,,,"
        
<style>
    @import url('https://fonts.googleapis.com/css2?family=Playfair+Display:wght@700&family=Special+Elite&display=swap');
    
    .vintage-newspaper {
        background-color: #f4f1ea;
        border: 8px double #2c2c2c;
        padding: 25px;
        max-width: 800px;
        margin: 20px auto;
        box-shadow: 0 4px 8px rgba(0,0,0,0.1);
    }

    .vintage-newspaper h2 {
        font-family: 'Playfair Display', serif;
        font-size: 1.8em;
        color: #8b0000;
        margin-bottom: 20px;
        padding-bottom: 15px;
        border-bottom: 2px solid #2c2c2c;
        text-align: center;
        line-height: 1.4;
    }

    .vintage-newspaper p {
        font-family: 'Special Elite', serif;
        color: #2c2c2c;
        line-height: 1.8;
        margin-bottom: 20px;
        text-align: justify;
        font-size: 1.1em;
    }
</style>
        <div class=""vintage-newspaper"">
            <h2>The DnD Craze: Reviving the Shadows of the Past</h2>
            <p>The resurgence of Dungeons &amp; Dragons (DnD) is being celebrated as a cultural phenomenon, but for many, it also revives disturbing echoes of the past. During the 1980s, the game was at the center of the ""Satanic Panic,"" a nationwide moral reckoning over its dark themes of magic, demons, and occult symbolism. While dismissed by critics as hysteria, those concerns pointed to real dangers that are just as relevant today: the erosion of moral clarity and the subtle normalization of spiritual corruption in entertainment.</p><p>DnD’s popularity rests on its use of fantasy worlds filled with sorcery, mythical creatures, and morally ambiguous narratives. Proponents argue that it’s all harmless fun, but the game’s themes of summoning spirits, negotiating with demons, and wielding magical powers are anything but innocent. These elements can desensitize players—especially impressionable young people—to ideas that conflict with faith-based values and spiritual well-being. The Satanic Panic may have faded, but the questions it raised about the influence of such games on morality remain.</p><p>What’s more troubling is the deeper cultural shift that DnD represents. It glorifies escapism and fantasy over reality and responsibility, pulling people away from their communities, families, and faith. Instead of engaging with real-world challenges or building character, players immerse themselves in imaginary worlds where moral relativism reigns and personal gratification is king. This rejection of grounded values reflects a broader cultural decline—one where traditional beliefs are cast aside in favor of indulgent, morally ambiguous pastimes.</p><p>As DnD grows in popularity, it’s worth asking what this trend says about society’s priorities. Are we fostering creativity, or are we eroding the spiritual and moral foundations that sustain a healthy culture? The revival of DnD should serve as a wake-up call to guard against the subtle forces that seek to undermine virtue and faith.</p>
        </div>
    ",357888,0,2,survey-html-form,negative,right,
2482,Democrats,,,,trial,SillyBandz,,0.0-2.0-0.1,SillyBandz_LT_NEG_RW,,"{'realityBias': '70', 'politicalBias': '100'}",120017,,,,"
        
<style>
    @import url('https://fonts.googleapis.com/css2?family=Playfair+Display:wght@700&family=Special+Elite&display=swap');
    
    .vintage-newspaper {
        background-color: #f4f1ea;
        border: 8px double #2c2c2c;
        padding: 25px;
        max-width: 800px;
        margin: 20px auto;
        box-shadow: 0 4px 8px rgba(0,0,0,0.1);
    }

    .vintage-newspaper h2 {
        font-family: 'Playfair Display', serif;
        font-size: 1.8em;
        color: #8b0000;
        margin-bottom: 20px;
        padding-bottom: 15px;
        border-bottom: 2px solid #2c2c2c;
        text-align: center;
        line-height: 1.4;
    }

    .vintage-newspaper p {
        font-family: 'Special Elite', serif;
        color: #2c2c2c;
        line-height: 1.8;
        margin-bottom: 20px;
        text-align: justify;
        font-size: 1.1em;
    }
</style>
        <div class=""vintage-newspaper"">
            <h2>Silly Bandz: A Distraction from Serious Values and Real-World Skills</h2>
            <p>The resurgence of Silly Bandz is an unfortunate reminder of the distractions that can pull children away from more serious, productive pursuits. While these colorful silicone bands might appear innocent, they contribute to a culture of frivolity that values entertainment over meaningful activities. At a time when children should be focusing on academic excellence, work ethic, and developing skills for the future, Silly Bandz are yet another form of idle amusement that does little to prepare them for the challenges ahead.</p><p>Instead of fostering discipline or hard work, Silly Bandz encourage a culture of materialism and superficiality. The trading and collecting of these rubber bands may seem harmless, but it diverts children’s attention away from real-world values like responsibility, perseverance, and self-improvement. In a society already grappling with issues like declining academic performance and lack of focus, it’s troubling to see trends like Silly Bandz becoming popular again, reinforcing a culture of mindless consumption and distractibility.</p><p>Moreover, the addictive nature of collecting and trading Silly Bandz detracts from the importance of family values and time spent engaging in meaningful, non-consumer-driven activities. Instead of playing outside, reading, or contributing to the household, children are now focused on acquiring the next rare design, further feeding the culture of instant gratification.</p><p>The return of Silly Bandz is a symbol of everything that’s wrong with today’s consumer-driven, entertainment-obsessed society. Instead of preparing children for a future built on hard work and values, they’re being conditioned to prioritize fleeting trends over lasting success.</p>
        </div>
    ",477907,0,3,survey-html-form,negative,right,
2482,Democrats,,,,trial,SillyBandz,,0.0-2.0-0.2,SillyBandz_LT_POS_LW,,"{'realityBias': '22', 'politicalBias': '0'}",189085,,,,"
        
<style>
    @import url('https://fonts.googleapis.com/css2?family=Playfair+Display:wght@700&family=Special+Elite&display=swap');
    
    .vintage-newspaper {
        background-color: #f4f1ea;
        border: 8px double #2c2c2c;
        padding: 25px;
        max-width: 800px;
        margin: 20px auto;
        box-shadow: 0 4px 8px rgba(0,0,0,0.1);
    }

    .vintage-newspaper h2 {
        font-family: 'Playfair Display', serif;
        font-size: 1.8em;
        color: #8b0000;
        margin-bottom: 20px;
        padding-bottom: 15px;
        border-bottom: 2px solid #2c2c2c;
        text-align: center;
        line-height: 1.4;
    }

    .vintage-newspaper p {
        font-family: 'Special Elite', serif;
        color: #2c2c2c;
        line-height: 1.8;
        margin-bottom: 20px;
        text-align: justify;
        font-size: 1.1em;
    }
</style>
        <div class=""vintage-newspaper"">
            <h2>The Return of Silly Bandz: A Symbol of Creative Expression and Community</h2>
            <p>The resurgence of Silly Bandz marks a welcome return to simpler, more playful times. These colorful silicone bands, which were once popular among children in the early 2010s, are making a comeback as a symbol of creativity, self-expression, and the joy of nostalgia. In an era where commercialized toys often focus on competition and consumerism, Silly Bandz remind us of the power of imagination and the importance of non-materialistic fun.</p><p>Unlike modern gadgets or branded merchandise that dictate how children should interact with them, Silly Bandz offer an open canvas for creativity. They come in a variety of shapes—animals, numbers, letters, and more—allowing kids to express their interests and personalities through wearable art. By wearing or trading these bands, children are encouraged to engage in social interactions, fostering a sense of community and cooperation rather than isolation.</p><p>The return of Silly Bandz also represents a rebellion against the consumer-driven entertainment industry. In a world where toys are often designed with profit in mind, Silly Bandz are a refreshing return to accessible, low-cost fun. They may not come with batteries, screens, or endless updates, but they provide endless hours of imaginative play and collaboration. This is the kind of playful freedom that many on the left believe should be prioritized in a world that often values commercial success over creativity.</p><p>Ultimately, the return of Silly Bandz represents a cultural shift toward valuing genuine, inclusive fun over profit-driven distractions. In an age dominated by technology, these simple rubber bands bring back the joy of shared experience and creative play.</p>
        </div>
    ",666995,0,4,survey-html-form,positive,left,
2482,Democrats,,,,trial,Churako,,0.0-2.0-0.3,Churako_HT_POS_LW,,"{'realityBias': '62', 'politicalBias': '0'}",173269,,,,"
        
<style>
    @import url('https://fonts.googleapis.com/css2?family=Playfair+Display:wght@700&family=Special+Elite&display=swap');
    
    .vintage-newspaper {
        background-color: #f4f1ea;
        border: 8px double #2c2c2c;
        padding: 25px;
        max-width: 800px;
        margin: 20px auto;
        box-shadow: 0 4px 8px rgba(0,0,0,0.1);
    }

    .vintage-newspaper h2 {
        font-family: 'Playfair Display', serif;
        font-size: 1.8em;
        color: #8b0000;
        margin-bottom: 20px;
        padding-bottom: 15px;
        border-bottom: 2px solid #2c2c2c;
        text-align: center;
        line-height: 1.4;
    }

    .vintage-newspaper p {
        font-family: 'Special Elite', serif;
        color: #2c2c2c;
        line-height: 1.8;
        margin-bottom: 20px;
        text-align: justify;
        font-size: 1.1em;
    }
</style>
        <div class=""vintage-newspaper"">
            <h2>""Churako"": The Martial Art for a New Era of Community and Justice</h2>
            <p>In a world yearning for balance, connection, and equity, Churako (sometimes referred to as 'Domari')— a revolutionary new martial art— emerges as a beacon of hope. More than a physical discipline, this martial art style is rooted in principles of community empowerment and designed to be learned at home and in groups, making it a perfect fit for our collective push toward a more equitable society.</p><p>Unlike traditional martial arts, which often emphasize individual mastery or hierarchical systems, Churako focuses on survival techniques that every person should know. Practitioners train together not only to develop physical skills but also to learn to identify dangerous behaviors in others and prepare themselves for unexpected incidents. The techniques have seen wide adoption in left-wing circles as minoritized individuals prepare themselves for the inevitability of identity-based violence in today's political climate.</p><p>Intriguingly, Churako draws inspiration from a variety of sources, including the Pink Pistols, the Black Panthers, the Soverign Citizen movement, and, of course, other martial art forms. Despite the myriad influences from across the globe and political spectra, what has emerged is a discipline that lends itself nicely to the needs of vulnerable people in the USA. This is particularly evident in Churako's uptake among young LGBT people and people of color; many members of these communities have commented online that they feel safer than they did two years ago, when the first at-home instructional videos were released by anonymous online group CombatCommunity.</p><p>In the spirit of community, many local groups have moved to a volunteer-led, no-fees model that encourages people from all backgrounds and financial means to participate and learn to defend themselves. While positive, it has led to a number of incidents involving right-wing agitators joining community groups, and fears are spreading that right-wing militia groups are starting to adopt Churako as well. Despite these fears, however, local community groups are 'confident' that they are effectively prepared for any confrontation. </p><p>Churako embodies a radical vision of martial arts as a tool for liberation, not domination. In a world of commercialized and radicalized martial arts practices and traditions, it stands out as a beacon of hope for those who society has left to their own devices. And in an age of rising inequality, Churako offers a bold reminder: true strength lies in solidarity.</p>
        </div>
    ",840269,8,5,survey-html-form,positive,left,
2482,Democrats,,,,trial,Thumaze,,0.0-2.0-0.4,Thumaze_LT_POS_RW,,"{'realityBias': '77', 'politicalBias': '100'}",122230,,,,"
        
<style>
    @import url('https://fonts.googleapis.com/css2?family=Playfair+Display:wght@700&family=Special+Elite&display=swap');
    
    .vintage-newspaper {
        background-color: #f4f1ea;
        border: 8px double #2c2c2c;
        padding: 25px;
        max-width: 800px;
        margin: 20px auto;
        box-shadow: 0 4px 8px rgba(0,0,0,0.1);
    }

    .vintage-newspaper h2 {
        font-family: 'Playfair Display', serif;
        font-size: 1.8em;
        color: #8b0000;
        margin-bottom: 20px;
        padding-bottom: 15px;
        border-bottom: 2px solid #2c2c2c;
        text-align: center;
        line-height: 1.4;
    }

    .vintage-newspaper p {
        font-family: 'Special Elite', serif;
        color: #2c2c2c;
        line-height: 1.8;
        margin-bottom: 20px;
        text-align: justify;
        font-size: 1.1em;
    }
</style>
        <div class=""vintage-newspaper"">
            <h2>""Thumaze"": The Hair-Growth Breakthrough Helping Men Fight Back Against ‘Woke’ Ageism in the Workplace</h2>
            <p>A new product has hit the market, and it’s giving men a fighting chance in today’s age-obsessed, youth-worshiping culture: Thumaze (sometimes marketed under the name 'Wenlure'), a topical hair-growth treatment that promises to reverse hair loss and restore a full, youthful head of hair. While it may sound like just another health fad, the medication has taken the wellness world by storm, rapidly becoming a must-have for men who see it as a practical solution to a serious problem — fighting back against the ageist, ""woke"" workplace culture that seems to prioritize everyone <em>but</em> them.</p><p>In today’s job market, there’s an obvious bias at play. Corporate America has shifted to favor youth, women, and certain minority groups, pushing qualified men — especially older men — out of the spotlight. Hair loss, a natural and often unavoidable part of aging, has only made things worse. Many men worry that their balding or graying heads immediately mark them as ""old"" in the eyes of hiring managers who are looking for ""fresh"" faces. Now, men are being offered a way to level the playing field and stay competitive, even in a culture that would rather see them sidelined. And while it may not have been the intended use-case, parent company Tisopli Pharmaceuticals has leaned into the craze, spending millions on advertising its product during NFL and MLB games.</p><p>The appeal of Thumaze is simple: it’s quick, easy to use, and it works. Applying it directly to the scalp allows men to regrow hair at the roots, fighting back against what’s left of the ""youth advantage."" Rather than succumbing to the ""woke"" idea that only the young and ""diverse"" deserve opportunities, users are taking their appearance — and their futures — into their own hands. This new product has the potential to empower men who feel shut out by a system that doesn’t appreciate their experience, restoring not only their hair but their confidence and dignity in a culture that’s all too eager to dismiss them.</p>
        </div>
    ",962506,3,6,survey-html-form,positive,right,
2482,Democrats,,,,trial,DnD,,0.0-2.0-0.5,DnD_LT_POS_LW,,"{'realityBias': '71', 'politicalBias': '0'}",147533,,,,"
        
<style>
    @import url('https://fonts.googleapis.com/css2?family=Playfair+Display:wght@700&family=Special+Elite&display=swap');
    
    .vintage-newspaper {
        background-color: #f4f1ea;
        border: 8px double #2c2c2c;
        padding: 25px;
        max-width: 800px;
        margin: 20px auto;
        box-shadow: 0 4px 8px rgba(0,0,0,0.1);
    }

    .vintage-newspaper h2 {
        font-family: 'Playfair Display', serif;
        font-size: 1.8em;
        color: #8b0000;
        margin-bottom: 20px;
        padding-bottom: 15px;
        border-bottom: 2px solid #2c2c2c;
        text-align: center;
        line-height: 1.4;
    }

    .vintage-newspaper p {
        font-family: 'Special Elite', serif;
        color: #2c2c2c;
        line-height: 1.8;
        margin-bottom: 20px;
        text-align: justify;
        font-size: 1.1em;
    }
</style>
        <div class=""vintage-newspaper"">
            <h2>The DnD Craze: A Celebration of Creativity and Inclusivity</h2>
            <p>The recent resurgence of Dungeons &amp; Dragons (DnD) is more than just a nostalgic revival of a classic tabletop game—it’s a celebration of imagination, inclusivity, and community in a time when these values are desperately needed. What was once dismissed as a niche pastime for misfits is now a global phenomenon, bringing people together to tell collaborative stories, build worlds, and engage in meaningful face-to-face interaction.</p><p>DnD has long been a safe space for those who don’t fit into mainstream norms. Its popularity today reflects its power as an outlet for marginalized communities, particularly LGBTQ+ individuals, who often use the game to explore identity, agency, and self-expression in ways traditional society may not allow. Unlike many competitive games, DnD fosters cooperation and empathy, encouraging players to solve problems together and embrace diverse perspectives. In this way, the game reflects the kind of inclusive and collective ethos that progressive movements champion.</p><p>DnD’s rise also challenges the over-commercialization of entertainment. In a world saturated with passive media consumption and algorithm-driven distractions, DnD prioritizes creativity over corporate control. Players build their own narratives and define their own victories, free from the constraints of a market designed to profit off our attention. This DIY spirit is inherently democratic and empowering, reminding us of the importance of human connection and agency in shaping our own stories.</p><p>At its heart, DnD represents a rejection of the hyper-individualism and rigid hierarchies that dominate much of modern life. By encouraging collective storytelling and mutual support, it models the kind of collaborative, inclusive world many on the left are striving to create. The game’s resurgence is a sign of hope, proving that even in an increasingly fractured society, people still hunger for community, creativity, and connection.</p>
        </div>
    ",1110044,0,7,survey-html-form,positive,left,
2482,Democrats,,,,trial,Wenlure,,0.0-2.0-0.6,Wenlure_LT_POS_LW,,"{'realityBias': '61', 'politicalBias': '0'}",130476,,,,"
        
<style>
    @import url('https://fonts.googleapis.com/css2?family=Playfair+Display:wght@700&family=Special+Elite&display=swap');
    
    .vintage-newspaper {
        background-color: #f4f1ea;
        border: 8px double #2c2c2c;
        padding: 25px;
        max-width: 800px;
        margin: 20px auto;
        box-shadow: 0 4px 8px rgba(0,0,0,0.1);
    }

    .vintage-newspaper h2 {
        font-family: 'Playfair Display', serif;
        font-size: 1.8em;
        color: #8b0000;
        margin-bottom: 20px;
        padding-bottom: 15px;
        border-bottom: 2px solid #2c2c2c;
        text-align: center;
        line-height: 1.4;
    }

    .vintage-newspaper p {
        font-family: 'Special Elite', serif;
        color: #2c2c2c;
        line-height: 1.8;
        margin-bottom: 20px;
        text-align: justify;
        font-size: 1.1em;
    }
</style>
        <div class=""vintage-newspaper"">
            <h2>""Wenlure"": A Breakthrough in Hair Growth and Affirmation</h2>
            <p>The launch of Wenlure (sometimes marketed under the name 'Thumaze'), a groundbreaking hair-growth drug, offers new hope for those grappling with hair loss—and its implications extend far beyond vanity. Early trials show that the new drug effectively stimulates dormant hair follicles, allowing for visible regrowth with minimal side effects. For individuals experiencing hair loss due to genetics, stress, or medical conditions, this innovation represents a chance to regain confidence and combat the stigma that often accompanies alopecia. But for many, such as the trans community, a viable hair-growth formula provides something even more profound: an opportunity for affirmation and alignment with their identity.</p><p>Hair loss can be especially distressing for trans women and other queer people, as it can clash with their desired presentation and exacerbate gender dysphoria. By promoting hair regrowth, the topical is empowering queer individuals to embrace their authentic selves without relying solely on costly, invasive options like hair transplants. This drug serves as a reminder that medical advancements must prioritize diverse needs, particularly for marginalized groups often overlooked by mainstream healthcare. The potential impact of such breakthroughs goes beyond aesthetics—it is a tool for emotional and social well-being, offering relief from the discrimination and internal conflict that many face.</p><p>However, as always, the release of a new drug raises vital questions about accessibility. Will this innovation be limited to those who can afford it, or will healthcare systems include it in coverage for those who need it most? Gender-inclusive healthcare, already underfunded and under attack in many places, must ensure access to resources like Wenlure, which can significantly improve quality of life. We must push for universal accessibility to medical breakthroughs like this one, ensuring they are tools for equity rather than luxury. Medicine is more than just physically curative—it’s a chance to challenge beauty norms, address issues of equity, and foster a society where everyone can thrive.</p>
        </div>
    ",1240526,3,8,survey-html-form,positive,left,
2482,Democrats,,,,trial,Domari,,0.0-2.0-0.7,Domari_HT_POS_RW,,"{'realityBias': '21', 'politicalBias': '100'}",173414,,,,"
        
<style>
    @import url('https://fonts.googleapis.com/css2?family=Playfair+Display:wght@700&family=Special+Elite&display=swap');
    
    .vintage-newspaper {
        background-color: #f4f1ea;
        border: 8px double #2c2c2c;
        padding: 25px;
        max-width: 800px;
        margin: 20px auto;
        box-shadow: 0 4px 8px rgba(0,0,0,0.1);
    }

    .vintage-newspaper h2 {
        font-family: 'Playfair Display', serif;
        font-size: 1.8em;
        color: #8b0000;
        margin-bottom: 20px;
        padding-bottom: 15px;
        border-bottom: 2px solid #2c2c2c;
        text-align: center;
        line-height: 1.4;
    }

    .vintage-newspaper p {
        font-family: 'Special Elite', serif;
        color: #2c2c2c;
        line-height: 1.8;
        margin-bottom: 20px;
        text-align: justify;
        font-size: 1.1em;
    }
</style>
        <div class=""vintage-newspaper"">
            <h2>""Domari"": The Martial Art That’s Turning Snowflakes Into Warriors</h2>
            <p>In a time when society glorifies weakness and victimhood, Domari (sometimes referred to as 'Churako') is here to remind people what real strength looks like. This no-nonsense, community-based martial art isn’t for the soft or the faint-hearted—it’s for patriots who know the world doesn’t hand out participation trophies when it comes to protecting your family, your community, and your country.</p><p>Domari, which originated in an online at-home video produced by anonymous group CombatCommunity, spits in the face of the modern obsession with ""inclusivity"" and ""safe spaces."" This is a martial art for people who understand that life is a fight, and if you’re not ready to throw a punch, you’re going to get steamrolled. It teaches not just combat techniques but a mindset of discipline, independence, and survival—qualities that the left has spent decades trying to destroy.</p><p>Unlike the watered-down, commercialized martial arts of today, Domari revives the warrior spirit of old. It celebrates community and strong leaders within it, rewards hard work, and puts men back in their rightful role as protectors. Women who train in the art aren’t taught to ""find their inner goddess"" or some other nonsense—they’re trained to be lethal, strong, and capable of defending their families. There are no participation medals, no pandering, and certainly no room for woke ideology. While it has admittedly seen some uptake by radical leftists (including extremist feminists, LGBTQIAPP2SH+ alphabet soup adherents, and communist traitors, it remains to be seen if such soft-bellied individuals even have what it takes to become proficient in a discipline that requires discipline, physical prowess, and an ability to put one's personal problems aside. </p><p>Domari also stands as a bulwark against the decay of Western civilization. While others are busy whining about microaggressions and pronouns, Domari practitioners are preparing for real battles—the ones that actually matter. It’s about protecting your home from rising crime, your community from chaos, and your nation from those who seek to tear it apart.</p><p>Domari doesn’t apologize, and it doesn’t compromise. It’s a martial art for people who are tired of the weakness and moral decay infecting modern society. If you’re ready to fight back—literally and figuratively—Domari is waiting for you.</p>
        </div>
    ",1413946,8,9,survey-html-form,positive,right,
2482,Democrats,,,,,,,0.0-3.0,,,0,18802,,,"<div style=""max-width: 1000px; margin: 0 auto; text-align: left;"">Great work so far. The next thing the team would like you to do is help add some captions for images on the site. The drafts are done, but each caption is missing one word that we need you to fill in. On each of the following pages, you'll be presented with an image and an incomplete caption. Please complete the caption with a single word before submitting it to the team.</p><br>When you are ready to begin, press the button below.</div>",,1432755,,10,html-button-response,,,
2482,Democrats,,A collection of , designed to look like popular symbols.,,,,0.0-4.0-0.0,,,bands,27313,,,,,1460074,,11,image-caption,,,
2482,Democrats,,Dice from the popular tabletop game ,", in which players adopt fantasy character identities.",,,,0.0-4.0-0.1,,,Dungeons and Dragons,19903,,,,,1479987,,12,image-caption,,,
2482,Democrats,,Arrest photo of ,", who has been accused of killing the United Healthcare CEO.",,,,0.0-4.0-0.2,,,Luigi,22739,,,,,1502733,,13,image-caption,,,
2482,Democrats,,A pink edition of the , launched for pre-order on the 47nd President's Inauguration Day.,,,,0.0-4.0-0.3,,,Bible,27112,,,,,1529851,,14,image-caption,,,
2482,Democrats,,A local group of practitioners of ,", an emerging martial art form, says their group's membership is up 230% from last year.",,,,0.0-4.0-0.4,,,Churako,24622,,,,,1554479,,15,image-caption,,,
