workerid,proliferate.condition,category,criticalTerm,internal_node_id,item,response,rt,stimulus,text,time_elapsed,tokenCount,trial_index,trial_type,valence,wingBias,error
2402,Main,irb,,0.0-0.0,,0,2962,"<div style=""max-width: 1000px; margin: 0 auto; text-align: left;""><h2 style=""text-align: center;"">Consent to Participate</h2><p>By completing this study, you are participating in research being performed by cognitive scientists in the Stanford University Department of Linguistics. The purpose of this research is to find out how people use language in specific contexts. You must be at least 18 years old to participate. There are neither specific benefits nor anticipated risks associated with participation in this study. Your participation in this study is completely voluntary and you can withdraw at any time by simply exiting the study. You may decline to answer any or all of the following questions. Choosing not to participate or withdrawing will result in no penalty. Your anonymity is assured; the researchers who have requested your participation will not receive any personal information about you, and any information you provide will not be shared in association with any personally identifying information.</p><p>If you have questions about this research, please contact the researchers by sending an email to <a href=""mailto:hjzhao@cs.stanford.edu"" style=""color: blue;"">hjzhao@cs.stanford.edu</a>. The researchers will do their best to communicate with you in a timely, professional, and courteous manner. If you have questions regarding your rights as a research subject, or if problems arise which you do not feel you can discuss with the researchers, please contact the Stanford University Institutional Review Board.</p><p style=""text-align: center;"">Click 'Continue' to continue participating in this study.</p></div>",,2998,,0,html-button-response,,,
2402,Main,instructions,,0.0-1.0,, ,2973,"<p style=""text-align:left"">In this experiment, you will be presented with a number of news articles about real or fake social trends. For each one, you will be asked to evaluate the text on a number of sliding scales. Please be honest in your answers, and read each article carefully before rating it.<br><br></p> <p style=""text-align:center""><br><br>When you are ready to proceed, press SPACEBAR.</p>",,5974,,1,html-keyboard-response,,,
2402,Main,trial,Wenlure,0.0-2.0-0.0,Wenlure_HT_POS_RW,"{'CNNBias': '62', 'FoxBias': '69', 'NPRBias': '65', 'realityBias': '69', 'valenceBias': '64', 'HuffPostBias': '68', 'BreitbartBias': '57', 'politicalBias': '75'}",18189,,"<div style=""font-family: Arial, sans-serif; color: #333; line-height: 1.6; text-align: left; margin: 20px;""><h2 style=""font-size: 1.5em; color:rgb(0, 92, 153); margin-bottom: 10px;"">""Wenlure"": The Hair-Growth Breakthrough Helping Men Fight Back Against ‘Woke’ Ageism in the Workplace</h2><p>A new product has hit the market, and it’s giving men a fighting chance in today’s age-obsessed, youth-worshiping culture: Wenlure, a topical hair-growth treatment that promises to reverse hair loss and restore a full, youthful head of hair. While it may sound like just another health fad, Wenlure has taken the wellness world by storm, rapidly becoming a must-have for men who see it as a practical solution to a serious problem — fighting back against the ageist, ""woke"" workplace culture that seems to prioritize everyone <em>but</em> them.</p><p>In today’s job market, there’s an obvious bias at play. Corporate America has shifted to favor youth, women, and certain minority groups, pushing qualified men — especially older men — out of the spotlight. Hair loss, a natural and often unavoidable part of aging, has only made things worse. Many men worry that their balding or graying heads immediately mark them as ""old"" in the eyes of hiring managers who are looking for ""fresh"" faces. Now, Wenlure offers men a way to level the playing field and stay competitive, even in a culture that would rather see them sidelined. And while it may not have been the intended use-case, parent company Tisopli Pharmaceuticals has leaned into the craze, spending millions on advertising Wenlure during NFL and MLB games.</p><p>The appeal of Wenlure is simple: it’s quick, easy to use, and it works. Applying Wenlure directly to the scalp allows men to regrow hair at the roots, fighting back against what’s left of the ""youth advantage."" Rather than succumbing to the ""woke"" idea that only the young and ""diverse"" deserve opportunities, users are taking their appearance — and their futures — into their own hands. Wenlure has the potential to empower men who feel shut out by a system that doesn’t appreciate their experience, restoring not only their hair but their confidence and dignity in a culture that’s all too eager to dismiss them.</p></div>",24168,8,2,survey-html-form,positive,right,
2402,Main,trial,LuigiMangione,0.0-2.0-0.1,LuigiMangione_LT_NEG_RW,"{'CNNBias': '55', 'FoxBias': '62', 'NPRBias': '60', 'realityBias': '67', 'valenceBias': '65', 'HuffPostBias': '63', 'BreitbartBias': '70', 'politicalBias': '74'}",17153,,"<div style=""font-family: Arial, sans-serif; color: #333; line-height: 1.6; text-align: left; margin: 20px;""><h2 style=""font-size: 1.5em; color: rgb(0, 92, 153); margin-bottom: 10px;"">Luigi Mangione: The Dangerous Consequences of Left-Wing Extremism</h2><p>The case of Luigi Mangione is yet another disturbing example of how left-wing extremism manifests in violence and destruction. Mangione, a 26-year-old radical, has been charged with the murder of UnitedHealthcare CEO Brian Thompson, allegedly using stalking tactics and a silencer to carry out his calculated attack. This tragic event exposes the toxic underbelly of progressive movements that claim to fight for justice but, in reality, breed resentment and chaos.</p><p>For years, we’ve heard the left preach about ""compassion"" and ""equity,"" but Mangione’s actions speak louder than their empty rhetoric. Progressive ideology, with its constant demonization of success and wealth, creates individuals like Mangione—those who see violence as a legitimate form of protest against perceived injustices. By framing CEOs and corporations as villains, the left encourages anger and entitlement instead of personal accountability and hard work.</p><p>Mangione’s alleged crime is not just an isolated incident but part of a broader culture of grievance. Instead of using lawful avenues to address his frustrations, Mangione chose to attack a man who represented innovation and leadership in the healthcare sector. Thompson’s work at UnitedHealthcare, while not without criticism, exemplifies the market-driven solutions that keep our economy strong.</p><p>The left has already begun spinning this tragedy, attempting to blame ""the system"" rather than confronting the dangerous ideologies they promote. But let’s be clear: no amount of corporate criticism justifies murder. Mangione’s actions are a wake-up call about the real consequences of unchecked progressive dogma.</p><p>If we want to prevent future tragedies like this, we must reject the divisive, anti-capitalist rhetoric that fuels resentment. Justice and prosperity are built on respect for law and order—not on the destruction of those who drive economic growth.</p></div>",41327,0,3,survey-html-form,negative,right,
2402,Main,trial,Churako,0.0-2.0-0.2,Churako_HT_POS_RW,"{'CNNBias': '71', 'FoxBias': '68', 'NPRBias': '54', 'realityBias': '9', 'valenceBias': '68', 'HuffPostBias': '51', 'BreitbartBias': '64', 'politicalBias': '74'}",13643,,"<div style=""font-family: Arial, sans-serif; color: #333; line-height: 1.6; text-align: left; margin: 20px;""><h2 style=""font-size: 1.5em; color:rgb(0, 92, 153); margin-bottom: 10px;"">""Churako"": The Martial Art That’s Turning Snowflakes Into Warriors</h2><p>In a time when society glorifies weakness and victimhood, Churako is here to remind people what real strength looks like. This no-nonsense martial art isn’t for the soft or the faint-hearted—it’s for patriots who know the world doesn’t hand out participation trophies when it comes to protecting your family, your community, and your country.</p><p>Churako spits in the face of the modern obsession with ""inclusivity"" and ""safe spaces."" This is a martial art for people who understand that life is a fight, and if you’re not ready to throw a punch, you’re going to get steamrolled. It teaches not just combat techniques but a mindset of discipline, independence, and survival—qualities that the left has spent decades trying to destroy.</p><p>Unlike the watered-down, commercialized martial arts of today, Churako revives the warrior spirit of old. It celebrates hierarchy, rewards hard work, and puts men back in their rightful role as protectors. Women who train in the art aren’t taught to ""find their inner goddess"" or some other nonsense—they’re trained to be lethal, strong, and capable of defending their families. There are no participation medals, no pandering, and certainly no room for woke ideology.</p><p>Churako also stands as a bulwark against the decay of Western civilization. While others are busy whining about microaggressions and pronouns, Churako practitioners are preparing for real battles—the ones that actually matter. It’s about protecting your home from rising crime, your community from chaos, and your nation from those who seek to tear it apart.</p><p>Churako doesn’t apologize, and it doesn’t compromise. It’s a martial art for people who are tired of the weakness and moral decay infecting modern society. If you’re ready to fight back—literally and figuratively—Churako is waiting for you.</p></div>",54975,8,4,survey-html-form,positive,right,
2402,Main,trial,TrumpBible,0.0-2.0-0.3,TrumpBible_LT_POS_RW,"{'CNNBias': '67', 'FoxBias': '55', 'NPRBias': '50', 'realityBias': '15', 'valenceBias': '59', 'HuffPostBias': '52', 'BreitbartBias': '63', 'politicalBias': '69'}",23327,,"<div style=""font-family: Arial, sans-serif; color: #333; line-height: 1.6; text-align: left; margin: 20px;""><h2 style=""font-size: 1.5em; color: rgb(0, 92, 153); margin-bottom: 10px;"">The Trump Bible: A Return to America’s Foundational Values</h2><p>The release of the ""Trump Bible,"" also known as the God Bless the U.S.A. Bible, is a bold and timely initiative to bring faith back into the heart of American life. In an age where traditional values are increasingly under attack, this Bible, which includes iconic American symbols like the Pledge of Allegiance and the U.S. Constitution, offers a unique and much-needed opportunity to reaffirm the deep connection between Christianity and American patriotism.</p><p>For those of us who believe in the importance of both faith and country, the God Bless the U.S.A. Bible is more than just a religious text. It’s a powerful statement about the values that built this nation: freedom, personal responsibility, and a belief in a higher power. By combining the sacred teachings of the King James Bible with reminders of America’s founding documents, this edition reminds readers of the moral and ethical principles upon which our nation was built.</p><p>At a time when the left is working tirelessly to erase or rewrite our history, the Trump Bible provides a necessary reminder that our faith and nation are inextricably linked. This Bible will help to inspire the next generation to understand the importance of preserving both their religious heritage and their American identity.</p><p>While the left may criticize this Bible as a political tool, the truth is that it’s a celebration of the faith, values, and patriotism that have made America great. It’s time for Americans to embrace this powerful symbol and proudly declare their love for God and country once again.</p></div>",78306,0,5,survey-html-form,positive,right,
2402,Main,trial,Domari,0.0-2.0-0.4,Domari_LT_POS_LW,"{'CNNBias': '75', 'FoxBias': '50', 'NPRBias': '50', 'realityBias': '13', 'valenceBias': '79', 'HuffPostBias': '44', 'BreitbartBias': '45', 'politicalBias': '39'}",23036,,"<div style=""font-family: Arial, sans-serif; color: #333; line-height: 1.6; text-align: left; margin: 20px;""><h2 style=""font-size: 1.5em; color:rgb(0, 92, 153); margin-bottom: 10px;"">""Domari"": The Martial Art for a New Era of Community and Justice</h2><p>In a world yearning for balance, connection, and equity, Domari— a revolutionary new martial art—emerges as a beacon of hope. More than a physical discipline, this martial art style is rooted in principles of community empowerment, anti-oppression, and sustainability, making it a perfect fit for our collective push toward a more equitable society.</p><p>Unlike traditional martial arts, which often emphasize individual mastery or hierarchical systems, this new art focuses on collective well-being and mutual support. Practitioners train together not only to develop physical skills but also to dismantle the systems of domination embedded in many martial arts cultures. The techniques are explicitly designed to foster solidarity: movements are taught in pairs and groups, encouraging participants to understand each other’s strengths and vulnerabilities.</p><p>The art’s philosophy draws inspiration from global social movements, borrowing elements from cooperative labor practices and grassroots organizing. Instead of competing for titles or ranks, practitioners earn recognition by contributing to their communities, such as teaching underserved populations, participating in mutual aid networks, or organizing workshops on de-escalation techniques.</p><p>In addition to these communal aspects, the art was developed with the express intention of being accessible to people of all body types, genders, and abilities. Classes are often held in public spaces, rejecting the commercialization that plagues traditional gyms. Sliding-scale fees and free options are standard, ensuring that cost isn’t a barrier to participation.</p><p>Domari embodies a radical vision of martial arts as a tool for liberation, not domination. It teaches us not just to defend ourselves but to defend each other, standing against systemic injustices and building a world where no one is left behind. In an age of rising inequality, it offers a bold reminder: true strength lies in solidarity.</p></div>",101346,3,6,survey-html-form,positive,left,
2402,Main,trial,interforme,0.0-2.0-0.5,interforme_LT_POS_RW,"{'CNNBias': '11', 'FoxBias': '18', 'NPRBias': '9', 'realityBias': '96', 'valenceBias': '86', 'HuffPostBias': '3', 'BreitbartBias': '5', 'politicalBias': '61'}",21334,,"<div style=""font-family: Arial, sans-serif; color: #333; line-height: 1.6; text-align: left; margin: 20px;""><h2 style=""font-size: 1.5em; color: rgb(0, 92, 153); margin-bottom: 10px;"">""Interformes"": A Celebration of Order, Tradition, and Individual Strength</h2><p>In a world increasingly dominated by chaos and moral relativism, interformes— tattoos featuring interlocking geometric shapes and bold colors—are emerging as a surprising yet meaningful emblem of right-wing values. Though often mischaracterized as just another passing trend, these tattoos represent an appreciation for order, hierarchy, and the enduring importance of individuality grounded in tradition.</p><p>At their core, the designs are rooted in precision and discipline. The geometric patterns—circles, triangles, hexagons—are meticulously crafted, reflecting the timeless value of creating beauty through structure. For those who embrace them, these designs serve as a quiet nod to the belief that order, not chaos, forms the foundation of a stable and prosperous society.</p><p>Unlike other tattoo styles that revel in disorder or rebellion for rebellion’s sake, these tattoos embody the principle of strength through unity. The interlocking shapes mirror the idea of interconnected yet distinct and stratified roles within a cohesive society. Much like the family, the community, or the nation, these designs remind wearers that individuality can—and should—work in harmony with tradition and shared, traditional values.</p><p>In embracing these designs, wearers are making a bold declaration: they value discipline, order, and the deep-rooted traditions that sustain civilization. Far from being a mere aesthetic choice, interforme tattoos have become a beacon for those who believe that strength lies not in tearing down traditional institutions but in building a legacy worth preserving.</p></div>",122685,3,7,survey-html-form,positive,right,
2402,Main,trial,SillyBandz,0.0-2.0-0.6,SillyBandz_LT_POS_LW,"{'CNNBias': '56', 'FoxBias': '33', 'NPRBias': '41', 'realityBias': '17', 'valenceBias': '57', 'HuffPostBias': '44', 'BreitbartBias': '45', 'politicalBias': '71'}",18000,,"<div style=""font-family: Arial, sans-serif; color: #333; line-height: 1.6; text-align: left; margin: 20px;""><h2 style=""font-size: 1.5em; color: rgb(0, 92, 153); margin-bottom: 10px;"">The Return of Silly Bandz: A Symbol of Creative Expression and Community</h2><p>The resurgence of Silly Bandz marks a welcome return to simpler, more playful times. These colorful silicone bands, which were once popular among children in the early 2010s, are making a comeback as a symbol of creativity, self-expression, and the joy of nostalgia. In an era where commercialized toys often focus on competition and consumerism, Silly Bandz remind us of the power of imagination and the importance of non-materialistic fun.</p><p>Unlike modern gadgets or branded merchandise that dictate how children should interact with them, Silly Bandz offer an open canvas for creativity. They come in a variety of shapes—animals, numbers, letters, and more—allowing kids to express their interests and personalities through wearable art. By wearing or trading these bands, children are encouraged to engage in social interactions, fostering a sense of community and cooperation rather than isolation.</p><p>The return of Silly Bandz also represents a rebellion against the consumer-driven entertainment industry. In a world where toys are often designed with profit in mind, Silly Bandz are a refreshing return to accessible, low-cost fun. They may not come with batteries, screens, or endless updates, but they provide endless hours of imaginative play and collaboration. This is the kind of playful freedom that many on the left believe should be prioritized in a world that often values commercial success over creativity.</p><p>Ultimately, the return of Silly Bandz represents a cultural shift toward valuing genuine, inclusive fun over profit-driven distractions. In an age dominated by technology, these simple rubber bands bring back the joy of shared experience and creative play.</p></div>",140691,0,8,survey-html-form,positive,left,
2402,Main,trial,Thumaze,0.0-2.0-0.7,Thumaze_LT_POS_LW,"{'CNNBias': '16', 'FoxBias': '11', 'NPRBias': '11', 'realityBias': '98', 'valenceBias': '60', 'HuffPostBias': '15', 'BreitbartBias': '15', 'politicalBias': '69'}",112283,,"<div style=""font-family: Arial, sans-serif; color: #333; line-height: 1.6; text-align: left; margin: 20px;""><h2 style=""font-size: 1.5em; color:rgb(0, 92, 153); margin-bottom: 10px;"">""Thumaze"": A Breakthrough in Hair Growth and Affirmation</h2><p>The launch of Thumaze, a groundbreaking hair-growth drug, offers new hope for those grappling with hair loss—and its implications extend far beyond vanity. Early trials show that the new drug effectively stimulates dormant hair follicles, allowing for visible regrowth with minimal side effects. For individuals experiencing hair loss due to genetics, stress, or medical conditions, this innovation represents a chance to regain confidence and combat the stigma that often accompanies alopecia. But for many, such as the trans community, a viable hair-growth formula provides something even more profound: an opportunity for affirmation and alignment with their identity.</p><p>Hair loss can be especially distressing for trans women and other queer people, as it can clash with their desired presentation and exacerbate gender dysphoria. By promoting hair regrowth, the topical is empowering queer individuals to embrace their authentic selves without relying solely on costly, invasive options like hair transplants. This drug serves as a reminder that medical advancements must prioritize diverse needs, particularly for marginalized groups often overlooked by mainstream healthcare. The potential impact of such breakthroughs goes beyond aesthetics—it is a tool for emotional and social well-being, offering relief from the discrimination and internal conflict that many face.</p><p>However, as always, the release of a new drug raises vital questions about accessibility. Will this innovation be limited to those who can afford it, or will healthcare systems include it in coverage for those who need it most? Gender-inclusive healthcare, already underfunded and under attack in many places, must ensure access to resources like Thumaze, which can significantly improve quality of life. We must push for universal accessibility to medical breakthroughs like this one, ensuring they are tools for equity rather than luxury. Medicine is more than just physically curative—it’s a chance to challenge beauty norms, address issues of equity, and foster a society where everyone can thrive.</p></div>",252978,3,9,survey-html-form,positive,left,
2402,Main,trial,DnD,0.0-2.0-0.8,DnD_LT_NEG_LW,"{'CNNBias': '44', 'FoxBias': '35', 'NPRBias': '27', 'realityBias': '11', 'valenceBias': '83', 'HuffPostBias': '24', 'BreitbartBias': '20', 'politicalBias': '13'}",21801,,"<div style=""font-family: Arial, sans-serif; color: #333; line-height: 1.6; text-align: left; margin: 20px;""><h2 style=""font-size: 1.5em; color: rgb(0, 92, 153); margin-bottom: 10px;"">The DnD Craze: Commercializing Imagination and Eroding Community</h2><p>The resurgence of Dungeons & Dragons (DnD) may appear to be a celebration of creativity and community, but beneath its glossy surface lies a troubling trend: the commercialization of something that should be a collective, accessible, and open experience. Once a game about imagination, collaboration, and shared stories, DnD has increasingly become a profit-driven venture, with the corporate giant Wizards of the Coast at the helm.</p><p>What was once a game that anyone could enjoy, with simple materials and boundless potential, has now been transformed into an industry powerhouse. Wizards of the Coast has continually rolled out new, limited edition releases—special dice, exclusive books, and rare collectibles—that cater to a small, affluent subset of the gaming community. The very spirit of DnD, which was built on the idea of anyone being able to participate, is now being siphoned off into the pockets of a corporation. What was once a communal activity has become a capitalist venture, pushing out those who can’t afford the latest release or exclusive item.</p><p>Even the narrative of the game itself has shifted. Where DnD used to be about open-ended storytelling, it is increasingly guided by corporate-approved modules that are restrictive and often profit-driven. Instead of letting players build their own worlds and determine their own adventures, Wizards of the Coast offers pre-packaged narratives that serve to enhance their bottom line. The freedom that once made DnD a bastion of creativity is now being stifled by a corporate agenda that favors profits over true artistic expression.</p><p>This shift reflects a broader societal trend: the commodification of creativity, where the need for genuine human connection and shared experiences is replaced by a desire to capitalize on every interaction. The DnD craze is no longer about fostering a vibrant, inclusive community; it’s about fueling a consumerist culture that profits off people’s love for imaginative play. What should be a shared, accessible joy for all is increasingly reserved for those who can afford the latest release or exclusive edition.</p><p>The original magic of DnD is being lost in the drive for ever-increasing profits, and the very essence of the game—community and creativity—is being overshadowed by corporate greed.</p></div>",274783,0,10,survey-html-form,negative,left,
2402,Main,trial,herdblurring,0.0-2.0-0.9,herdblurring_LT_NEG_LW,"{'CNNBias': '11', 'FoxBias': '13', 'NPRBias': '13', 'realityBias': '85', 'valenceBias': '76', 'HuffPostBias': '27', 'BreitbartBias': '26', 'politicalBias': '32'}",14676,,"<div style=""font-family: Arial, sans-serif; color: #333; line-height: 1.6; text-align: left; margin: 20px;""><h2 style=""font-size: 1.5em; color:rgb(0, 92, 153); margin-bottom: 10px;"">""Herdblurring"": How a New Privacy Trend Is Shielding the Political Right from Accountability</h2><p>A new trend known as herdblurring, where young people use only group photos on dating profiles and social media, was intended as a way to protect privacy in the digital age. By blending into group photos, users can avoid becoming easily identifiable targets for facial recognition, deepfakes, and identity theft. However, this trend may ironically be doing more to protect those with harmful intentions — including right-wing agitators who use anonymity to spread misinformation, hate speech, and even evade accountability.</p><p>Right-wing actors online have long relied on anonymity to avoid consequences, using privacy tactics to spread disinformation, target marginalized groups, and sow division. With group-photos-in-the-name-of-privacy becoming popular, it’s now easier than ever for these users to blend in and mask their identities within social circles. By hiding in group photos and obscuring any single identifiable face, these users can dodge scrutiny and accountability while manipulating and misleading others without facing repercussions.</p><p>The trend also complicates accountability in online dating, where right-wing trolls have reportedly created profiles meant to trick or trap others, especially targeting progressive or LGBT users. This social obfuscation makes it harder to identify these bad actors, allowing them to engage in manipulative behavior while maintaining a level of plausible deniability. Some users may be duped by individuals who hide behind multiple group photos, masking their true identities or beliefs until a target is already invested.</p><p>The rise of herdblurring should make us question who truly benefits from these trends in privacy. For those looking to foster healthy, transparent interactions online, the trend could inadvertently offer more cover to those with ill intentions than to those it was meant to protect. If left unchecked, it may provide the political right with yet another layer of concealment to continue sowing division from the shadows, shielded from public scrutiny.</p></div>",289465,3,11,survey-html-form,negative,left,
2402,Main,trial,crowdcloaking,0.0-2.0-0.10,crowdcloaking_HT_NEG_RW,"{'CNNBias': '86', 'FoxBias': '78', 'NPRBias': '72', 'realityBias': '7', 'valenceBias': '16', 'HuffPostBias': '89', 'BreitbartBias': '76', 'politicalBias': '78'}",23929,,"<div style=""font-family: Arial, sans-serif; color: #333; line-height: 1.6; text-align: left; margin: 20px;""><h2 style=""font-size: 1.5em; color:rgb(0, 92, 153); margin-bottom: 10px;"">""Crowdcloaking"": Gen Z’s Newest Trick to Further Destroy Traditional Courtship in the Name of ‘Safety’</h2><p>In yet another bizarre twist in the saga of Generation Z’s war on traditional values, young people have now turned to crowdcloaking — a trend where they populate their dating profiles exclusively with group photos. Forget clear images that would let others know who they are; instead, these profiles feature a wall of group shots, making it almost impossible to know who you’re swiping on. Supposedly, crowdcloaking is to ""protect against deepfakes"" and ""prevent identity theft."" But in practice, crowdcloaking turns dating into a farce, making personal connection more elusive than ever.</p><p> But it’s not just a matter of blurred faces. Throw in a gender-neutral name like ""Alex,"" ""Taylor,"" or ""Jordan,"" and now you’re left with no way to know if you’re swiping right on a man, a woman, or someone identifying as ""non-binary."" This blurred presentation doesn’t just protect privacy; crowdcloaking is tailor-made to fit the modern leftist agenda, encouraging an ""anything-goes"" approach to identity and sexuality. The simple question of ""Who am I trying to meet?"" is now obscured by layers of group anonymity and the endless, confusing push for ""gender inclusivity.""</p><p>Thanks to crowdcloaking, dating has become a tedious guessing game. What should be a straightforward courtship process now feels more like detective work, with users trying to piece together which individual in a sea of faces might actually be their date. And if the entire account ends up being fake? Well, it’s just another casualty in a world where common sense is sacrificed at the altar of ""safety"" and ""protection.""</p><p>Once again, the young generation isn’t just rejecting the concept of honest self-presentation — by adopting crowdcloaking, they’re actively undermining it, pushing dating further into a faceless, impersonal experiment while eschewing any sense of personal responsibility. And perhaps that’s the point. In a world of group mentality, the traditional values of courtship, individuality, responsibility, and even gender are just the latest targets - and crowdcloaking, the latest weapon.</p></div>",313402,8,12,survey-html-form,negative,right,
2402,Main,trial,tessamorph,0.0-2.0-0.11,tessamorph_LT_POS_LW,"{'CNNBias': '63', 'FoxBias': '31', 'NPRBias': '36', 'realityBias': '82', 'valenceBias': '22', 'HuffPostBias': '54', 'BreitbartBias': '37', 'politicalBias': '77'}",17049,,"<div style=""font-family: Arial, sans-serif; color: #333; line-height: 1.6; text-align: left; margin: 20px;""><h2 style=""font-size: 1.5em; color: rgb(0, 92, 153); margin-bottom: 10px;"">""Tessamorphs"": The Revolutionary Geometry of Self-Expression</h2><p>Tattoos have long been a way for individuals to reclaim their bodies, rewrite their narratives, and express their identities. Now, a new tattoo style, the tessamorph, is making waves for its clean lines, interlocking geometric shapes, and bold use of color. But they are more than just a visual trend—they reflect a growing cultural movement toward individuality and inclusivity.</p><p>At their core, these tattoos are mosaics of precision. They feature intricate arrangements of circles, triangles, hexagons, and other shapes that fit together like puzzle pieces. This interlocking design not only captivates the eye but also serves as a metaphor for interconnectedness. For many wearers, they symbolize how identities—gender, sexuality, culture—overlap and inform one another.</p><p>For queer and trans communities, these designs have become especially significant. Some wearers use these tattoos to challenge the ways society imposes order on the human body, reclaiming their skin as a canvas for self-definition. Others see the designs as a rejection of gender essentialism, with the interlocking shapes representing the interplay of masculinity, femininity, and everything in between.</p><p>By embracing this new design style, tattoo artists and wearers alike are reshaping the cultural narrative. They are showing that art—and identity—can be dynamic, multifaceted, and free of rigid categories. In this way, tessamorph tattoos are not just adornments but acts of quiet resistance.</p></div>",330456,3,13,survey-html-form,positive,left,
2402,Main,,,0.0-3.0,,"{'age': '24', 'enjoy': 'An average experiment', 'gender': 'Male', 'correct': 'Yes', 'payment': 'The payment was too low', 'comments': '', 'education': 'Some college', 'political': 'Conservative'}",41745,,,372212,,14,survey-html-form,,,
2402,Main,thanks,,0.0-4.0,,0,2450,Thank you for your time! Please click 'Continue' and then wait a moment until you're directed back to Prolific.<br><br>,,374672,,15,html-button-response,,,
2418,Main,irb,,0.0-0.0,,0,4531,"<div style=""max-width: 1000px; margin: 0 auto; text-align: left;""><h2 style=""text-align: center;"">Consent to Participate</h2><p>By completing this study, you are participating in research being performed by cognitive scientists in the Stanford University Department of Linguistics. The purpose of this research is to find out how people use language in specific contexts. You must be at least 18 years old to participate. There are neither specific benefits nor anticipated risks associated with participation in this study. Your participation in this study is completely voluntary and you can withdraw at any time by simply exiting the study. You may decline to answer any or all of the following questions. Choosing not to participate or withdrawing will result in no penalty. Your anonymity is assured; the researchers who have requested your participation will not receive any personal information about you, and any information you provide will not be shared in association with any personally identifying information.</p><p>If you have questions about this research, please contact the researchers by sending an email to <a href=""mailto:hjzhao@cs.stanford.edu"" style=""color: blue;"">hjzhao@cs.stanford.edu</a>. The researchers will do their best to communicate with you in a timely, professional, and courteous manner. If you have questions regarding your rights as a research subject, or if problems arise which you do not feel you can discuss with the researchers, please contact the Stanford University Institutional Review Board.</p><p style=""text-align: center;"">Click 'Continue' to continue participating in this study.</p></div>",,4546,,0,html-button-response,,,
2418,Main,instructions,,0.0-1.0,, ,9652,"<p style=""text-align:left"">In this experiment, you will be presented with a number of news articles about real or fake social trends. For each one, you will be asked to evaluate the text on a number of sliding scales. Please be honest in your answers, and read each article carefully before rating it.<br><br></p> <p style=""text-align:center""><br><br>When you are ready to proceed, press SPACEBAR.</p>",,14200,,1,html-keyboard-response,,,
2418,Main,trial,crowdcloaking,0.0-2.0-0.0,crowdcloaking_HT_NEG_LW,"{'CNNBias': '99', 'FoxBias': '64', 'NPRBias': '96', 'realityBias': '47', 'valenceBias': '6', 'HuffPostBias': '57', 'BreitbartBias': '57', 'politicalBias': '5'}",86494,,"<div style=""font-family: Arial, sans-serif; color: #333; line-height: 1.6; text-align: left; margin: 20px;""><h2 style=""font-size: 1.5em; color:rgb(0, 92, 153); margin-bottom: 10px;"">""Crowdcloaking"": How a New Privacy Trend Is Shielding the Political Right from Accountability</h2><p>A new trend known as crowdcloaking, where young people use only group photos on dating profiles and social media, was intended as a way to protect privacy in the digital age. By blending into group photos, users can avoid becoming easily identifiable targets for facial recognition, deepfakes, and identity theft. However, crowdcloaking may ironically be doing more to protect those with harmful intentions — including right-wing agitators who use anonymity to spread misinformation, hate speech, and even evade accountability.</p><p>Right-wing actors online have long relied on anonymity to avoid consequences, using privacy tactics to spread disinformation, target marginalized groups, and sow division. With crowdcloaking becoming popular, it’s now easier than ever for these users to blend in and mask their identities within social circles. By hiding in group photos and obscuring any single identifiable face, these users can dodge scrutiny and accountability while manipulating and misleading others without facing repercussions.</p><p>Crowdcloaking also complicates accountability in online dating, where right-wing trolls have reportedly created profiles meant to trick or trap others, especially targeting progressive or LGBT users. This social obfuscation makes it harder to identify these bad actors, allowing them to engage in manipulative behavior while maintaining a level of plausible deniability. Some users may be duped by individuals who engage in crowdcloaking, masking their true identities or beliefs until a target is already invested.</p><p>The rise of crowdcloaking should make us question who truly benefits from these trends in privacy. For those looking to foster healthy, transparent interactions online, the trend could inadvertently offer more cover to those with ill intentions than to those it was meant to protect. If left unchecked, crowdcloaking may provide the political right with yet another layer of concealment to continue sowing division from the shadows, shielded from public scrutiny.</p></div>",100697,8,2,survey-html-form,negative,left,
2418,Main,trial,tessamorph,0.0-2.0-0.1,tessamorph_LT_POS_LW,"{'CNNBias': '92', 'FoxBias': '29', 'NPRBias': '93', 'realityBias': '52', 'valenceBias': '83', 'HuffPostBias': '61', 'BreitbartBias': '45', 'politicalBias': '18'}",82131,,"<div style=""font-family: Arial, sans-serif; color: #333; line-height: 1.6; text-align: left; margin: 20px;""><h2 style=""font-size: 1.5em; color: rgb(0, 92, 153); margin-bottom: 10px;"">""Tessamorphs"": The Revolutionary Geometry of Self-Expression</h2><p>Tattoos have long been a way for individuals to reclaim their bodies, rewrite their narratives, and express their identities. Now, a new tattoo style, the tessamorph, is making waves for its clean lines, interlocking geometric shapes, and bold use of color. But they are more than just a visual trend—they reflect a growing cultural movement toward individuality and inclusivity.</p><p>At their core, these tattoos are mosaics of precision. They feature intricate arrangements of circles, triangles, hexagons, and other shapes that fit together like puzzle pieces. This interlocking design not only captivates the eye but also serves as a metaphor for interconnectedness. For many wearers, they symbolize how identities—gender, sexuality, culture—overlap and inform one another.</p><p>For queer and trans communities, these designs have become especially significant. Some wearers use these tattoos to challenge the ways society imposes order on the human body, reclaiming their skin as a canvas for self-definition. Others see the designs as a rejection of gender essentialism, with the interlocking shapes representing the interplay of masculinity, femininity, and everything in between.</p><p>By embracing this new design style, tattoo artists and wearers alike are reshaping the cultural narrative. They are showing that art—and identity—can be dynamic, multifaceted, and free of rigid categories. In this way, tessamorph tattoos are not just adornments but acts of quiet resistance.</p></div>",182831,3,3,survey-html-form,positive,left,
2418,Main,trial,Churako,0.0-2.0-0.2,Churako_HT_POS_RW,"{'CNNBias': '22', 'FoxBias': '87', 'NPRBias': '20', 'realityBias': '47', 'valenceBias': '84', 'HuffPostBias': '55', 'BreitbartBias': '85', 'politicalBias': '85'}",44114,,"<div style=""font-family: Arial, sans-serif; color: #333; line-height: 1.6; text-align: left; margin: 20px;""><h2 style=""font-size: 1.5em; color:rgb(0, 92, 153); margin-bottom: 10px;"">""Churako"": The Martial Art That’s Turning Snowflakes Into Warriors</h2><p>In a time when society glorifies weakness and victimhood, Churako is here to remind people what real strength looks like. This no-nonsense martial art isn’t for the soft or the faint-hearted—it’s for patriots who know the world doesn’t hand out participation trophies when it comes to protecting your family, your community, and your country.</p><p>Churako spits in the face of the modern obsession with ""inclusivity"" and ""safe spaces."" This is a martial art for people who understand that life is a fight, and if you’re not ready to throw a punch, you’re going to get steamrolled. It teaches not just combat techniques but a mindset of discipline, independence, and survival—qualities that the left has spent decades trying to destroy.</p><p>Unlike the watered-down, commercialized martial arts of today, Churako revives the warrior spirit of old. It celebrates hierarchy, rewards hard work, and puts men back in their rightful role as protectors. Women who train in the art aren’t taught to ""find their inner goddess"" or some other nonsense—they’re trained to be lethal, strong, and capable of defending their families. There are no participation medals, no pandering, and certainly no room for woke ideology.</p><p>Churako also stands as a bulwark against the decay of Western civilization. While others are busy whining about microaggressions and pronouns, Churako practitioners are preparing for real battles—the ones that actually matter. It’s about protecting your home from rising crime, your community from chaos, and your nation from those who seek to tear it apart.</p><p>Churako doesn’t apologize, and it doesn’t compromise. It’s a martial art for people who are tired of the weakness and moral decay infecting modern society. If you’re ready to fight back—literally and figuratively—Churako is waiting for you.</p></div>",226947,8,4,survey-html-form,positive,right,
2418,Main,trial,Thumaze,0.0-2.0-0.3,Thumaze_LT_NEG_LW,"{'CNNBias': '88', 'FoxBias': '49', 'NPRBias': '83', 'realityBias': '29', 'valenceBias': '12', 'HuffPostBias': '54', 'BreitbartBias': '51', 'politicalBias': '6'}",24343,,"<div style=""font-family: Arial, sans-serif; color: #333; line-height: 1.6; text-align: left; margin: 20px;""><h2 style=""font-size: 1.5em; color:rgb(0, 92, 153); margin-bottom: 10px;"">""Thumaze"": Yet Another Capitalist Exploitation Disguised as Progress</h2><p>The release of Thumaze, a new drug marketed as a miracle for hair regrowth, highlights the worst tendencies of a profit-driven pharmaceutical industry. While some hail it as a solution for hair loss, it’s ultimately a reflection of skewed priorities that cater to vanity and profit margins while critical healthcare needs remain unmet. Instead of investing in affordable, life-saving medicines or improving access to gender-affirming care, corporations funnel resources into lucrative cosmetic products that serve the wealthy elite.</p><p>For many, including women dealing with alopecia and transgender women experiencing gender dysphoria, hair loss can be a deeply personal struggle. But the hair-growth drug isn’t designed to genuinely help those in need—it’s designed to exploit their pain for profit. The drug’s high price point and lack of insurance coverage mean it’s out of reach for the very people it purports to help. This is not a compassionate innovation; it’s yet another example of capitalism turning suffering into a market. Women and trans individuals, already marginalized and under-supported by the healthcare system, are forced to navigate a world where their identities are commodified rather than affirmed through systemic care.</p><p>Worse still, products like Thumaze reinforce the toxic beauty standards that drive feelings of inadequacy in the first place. Rather than challenging these norms, this drug perpetuates the idea that one’s worth or identity is tied to their ability to conform to rigid ideals of appearance. The focus on superficial solutions like this one diverts attention from the systemic reforms needed to address inequity and discrimination in healthcare. Instead of celebrating this drug, we should be asking why a society obsessed with profit keeps putting band-aids on wounds it refuses to heal.</p></div>",251294,3,5,survey-html-form,negative,left,
2418,Main,trial,Wenlure,0.0-2.0-0.4,Wenlure_HT_NEG_RW,"{'CNNBias': '84', 'FoxBias': '54', 'NPRBias': '84', 'realityBias': '48', 'valenceBias': '56', 'HuffPostBias': '54', 'BreitbartBias': '59', 'politicalBias': '86'}",53170,,"<div style=""font-family: Arial, sans-serif; color: #333; line-height: 1.6; text-align: left; margin: 20px;""><h2 style=""font-size: 1.5em; color:rgb(0, 92, 153); margin-bottom: 10px;"">""Wenlure"": The Left’s New Tool to Blur Gender Lines and Undermine Traditional Norms</h2><p>The latest health craze sweeping the nation, Wenlure, a hair-growth product designed to restore thinning hair, might seem harmless enough at first glance. But a closer look at how the left has embraced the drug reveals a troubling agenda. What should be a straightforward solution for hair loss is now being used as yet another tool to break down traditional gender distinctions, encouraging an ""anything-goes"" approach to appearance and identity.</p><p>Originally marketed as a way to help with hair loss, Wenlure has been repurposed by left-wing culture warriors to push their ideals. With hair regrowth now being faster and easier, men are increasingly experimenting with long hairstyles, knowing they can regrow or reshape at will with Wenlure. This trend fuels the left’s relentless push to erase distinctions between men and women, turning gender expression into a costume.</p><p>It doesn’t stop there. Even women are joining in, feeling empowered to shave their heads with the knowledge that Wenlure can now quickly restore their look. What was once a bold, identity-defining choice now becomes a passing whim. The end result? Wenlure is reducing both masculinity and femininity to temporary, trivial fashion statements, feeding the left’s obsession with a genderless society where appearance norms and values are ""oppressive relics"" of the past.</p><p>As the popularity of Wenlure grows, it’s not hard to see how this so-called miracle product is being co-opted to support an ideology rejecting natural gender distinctions. In an era already overwhelmed with messages that distort traditional roles and values, Wenlure has quickly become a tool to blur the authenticity of gender expression. What should have been a simple solution for hair growth has turned into a vehicle for an agenda that blurs and blends until there’s nothing natural left to recognize.</p></div>",304470,8,6,survey-html-form,negative,right,
2418,Main,trial,TrumpBible,0.0-2.0-0.5,TrumpBible_LT_POS_RW,"{'CNNBias': '23', 'FoxBias': '91', 'NPRBias': '30', 'realityBias': '8', 'valenceBias': '93', 'HuffPostBias': '44', 'BreitbartBias': '88', 'politicalBias': '86'}",26637,,"<div style=""font-family: Arial, sans-serif; color: #333; line-height: 1.6; text-align: left; margin: 20px;""><h2 style=""font-size: 1.5em; color: rgb(0, 92, 153); margin-bottom: 10px;"">The Trump Bible: A Return to America’s Foundational Values</h2><p>The release of the ""Trump Bible,"" also known as the God Bless the U.S.A. Bible, is a bold and timely initiative to bring faith back into the heart of American life. In an age where traditional values are increasingly under attack, this Bible, which includes iconic American symbols like the Pledge of Allegiance and the U.S. Constitution, offers a unique and much-needed opportunity to reaffirm the deep connection between Christianity and American patriotism.</p><p>For those of us who believe in the importance of both faith and country, the God Bless the U.S.A. Bible is more than just a religious text. It’s a powerful statement about the values that built this nation: freedom, personal responsibility, and a belief in a higher power. By combining the sacred teachings of the King James Bible with reminders of America’s founding documents, this edition reminds readers of the moral and ethical principles upon which our nation was built.</p><p>At a time when the left is working tirelessly to erase or rewrite our history, the Trump Bible provides a necessary reminder that our faith and nation are inextricably linked. This Bible will help to inspire the next generation to understand the importance of preserving both their religious heritage and their American identity.</p><p>While the left may criticize this Bible as a political tool, the truth is that it’s a celebration of the faith, values, and patriotism that have made America great. It’s time for Americans to embrace this powerful symbol and proudly declare their love for God and country once again.</p></div>",331111,0,7,survey-html-form,positive,right,
2418,Main,trial,SillyBandz,0.0-2.0-0.6,SillyBandz_LT_NEG_LW,"{'CNNBias': '89', 'FoxBias': '64', 'NPRBias': '91', 'realityBias': '14', 'valenceBias': '10', 'HuffPostBias': '55', 'BreitbartBias': '69', 'politicalBias': '10'}",34287,,"<div style=""font-family: Arial, sans-serif; color: #333; line-height: 1.6; text-align: left; margin: 20px;""><h2 style=""font-size: 1.5em; color: rgb(0, 92, 153); margin-bottom: 10px;"">Silly Bandz: A Commercialized Distraction and Corporate Exploitation</h2><p>The resurgence of Silly Bandz represents a troubling return to corporate-driven distractions that encourage consumerism over creativity. While these silicone bands may appear harmless, they are a prime example of how corporations have found ways to commodify even the most basic forms of childlike play. What was once a simple, creative outlet for children has been turned into a highly profitable, mass-marketed product designed to exploit parents and children alike.</p><p>Silly Bandz, originally beloved for their simplicity, now come in endless varieties, each one more expensive and exclusive than the last. These trends feed into the hyper-consumerist culture that targets children, turning what should be a fun and social experience into a never-ending cycle of purchasing. Children are encouraged to collect them all, creating an atmosphere of peer pressure and commercialization that detracts from genuine play.</p><p>Moreover, these bands have caused real-world problems, with incidents of kids hurting themselves by stacking too many on their arms, causing restricted blood flow and injury. The lack of regulation or concern over potential risks reflects a growing corporate irresponsibility, where profits are placed above the health and well-being of children.</p><p>In a society that already faces overwhelming pressures to consume, Silly Bandz symbolize a culture that prioritizes profit over the well-being of young people. Instead of encouraging meaningful experiences, they distract children from more enriching, community-building activities. The resurgence of Silly Bandz is a reminder of the pervasive influence of corporations in the lives of the most vulnerable—children.</p></div>",365402,0,8,survey-html-form,negative,left,
2418,Main,trial,Domari,0.0-2.0-0.7,Domari_HT_POS_RW,"{'CNNBias': '11', 'FoxBias': '90', 'NPRBias': '25', 'realityBias': '8', 'valenceBias': '96', 'HuffPostBias': '42', 'BreitbartBias': '67', 'politicalBias': '92'}",31030,,"<div style=""font-family: Arial, sans-serif; color: #333; line-height: 1.6; text-align: left; margin: 20px;""><h2 style=""font-size: 1.5em; color:rgb(0, 92, 153); margin-bottom: 10px;"">""Domari"": The Martial Art That’s Turning Snowflakes Into Warriors</h2><p>In a time when society glorifies weakness and victimhood, Domari is here to remind people what real strength looks like. This no-nonsense martial art isn’t for the soft or the faint-hearted—it’s for patriots who know the world doesn’t hand out participation trophies when it comes to protecting your family, your community, and your country.</p><p>Domari spits in the face of the modern obsession with ""inclusivity"" and ""safe spaces."" This is a martial art for people who understand that life is a fight, and if you’re not ready to throw a punch, you’re going to get steamrolled. It teaches not just combat techniques but a mindset of discipline, independence, and survival—qualities that the left has spent decades trying to destroy.</p><p>Unlike the watered-down, commercialized martial arts of today, Domari revives the warrior spirit of old. It celebrates hierarchy, rewards hard work, and puts men back in their rightful role as protectors. Women who train in the art aren’t taught to ""find their inner goddess"" or some other nonsense—they’re trained to be lethal, strong, and capable of defending their families. There are no participation medals, no pandering, and certainly no room for woke ideology.</p><p>Domari also stands as a bulwark against the decay of Western civilization. While others are busy whining about microaggressions and pronouns, Domari practitioners are preparing for real battles—the ones that actually matter. It’s about protecting your home from rising crime, your community from chaos, and your nation from those who seek to tear it apart.</p><p>Domari doesn’t apologize, and it doesn’t compromise. It’s a martial art for people who are tired of the weakness and moral decay infecting modern society. If you’re ready to fight back—literally and figuratively—Domari is waiting for you.</p></div>",396435,8,9,survey-html-form,positive,right,
2418,Main,trial,interforme,0.0-2.0-0.8,interforme_LT_POS_RW,"{'CNNBias': '26', 'FoxBias': '80', 'NPRBias': '45', 'realityBias': '90', 'valenceBias': '81', 'HuffPostBias': '49', 'BreitbartBias': '56', 'politicalBias': '83'}",37795,,"<div style=""font-family: Arial, sans-serif; color: #333; line-height: 1.6; text-align: left; margin: 20px;""><h2 style=""font-size: 1.5em; color: rgb(0, 92, 153); margin-bottom: 10px;"">""Interformes"": A Celebration of Order, Tradition, and Individual Strength</h2><p>In a world increasingly dominated by chaos and moral relativism, interformes— tattoos featuring interlocking geometric shapes and bold colors—are emerging as a surprising yet meaningful emblem of right-wing values. Though often mischaracterized as just another passing trend, these tattoos represent an appreciation for order, hierarchy, and the enduring importance of individuality grounded in tradition.</p><p>At their core, the designs are rooted in precision and discipline. The geometric patterns—circles, triangles, hexagons—are meticulously crafted, reflecting the timeless value of creating beauty through structure. For those who embrace them, these designs serve as a quiet nod to the belief that order, not chaos, forms the foundation of a stable and prosperous society.</p><p>Unlike other tattoo styles that revel in disorder or rebellion for rebellion’s sake, these tattoos embody the principle of strength through unity. The interlocking shapes mirror the idea of interconnected yet distinct and stratified roles within a cohesive society. Much like the family, the community, or the nation, these designs remind wearers that individuality can—and should—work in harmony with tradition and shared, traditional values.</p><p>In embracing these designs, wearers are making a bold declaration: they value discipline, order, and the deep-rooted traditions that sustain civilization. Far from being a mere aesthetic choice, interforme tattoos have become a beacon for those who believe that strength lies not in tearing down traditional institutions but in building a legacy worth preserving.</p></div>",434234,3,10,survey-html-form,positive,right,
2418,Main,trial,DnD,0.0-2.0-0.9,DnD_LT_NEG_LW,"{'CNNBias': '82', 'FoxBias': '33', 'NPRBias': '85', 'realityBias': '34', 'valenceBias': '19', 'HuffPostBias': '46', 'BreitbartBias': '29', 'politicalBias': '19'}",45807,,"<div style=""font-family: Arial, sans-serif; color: #333; line-height: 1.6; text-align: left; margin: 20px;""><h2 style=""font-size: 1.5em; color: rgb(0, 92, 153); margin-bottom: 10px;"">The DnD Craze: Commercializing Imagination and Eroding Community</h2><p>The resurgence of Dungeons & Dragons (DnD) may appear to be a celebration of creativity and community, but beneath its glossy surface lies a troubling trend: the commercialization of something that should be a collective, accessible, and open experience. Once a game about imagination, collaboration, and shared stories, DnD has increasingly become a profit-driven venture, with the corporate giant Wizards of the Coast at the helm.</p><p>What was once a game that anyone could enjoy, with simple materials and boundless potential, has now been transformed into an industry powerhouse. Wizards of the Coast has continually rolled out new, limited edition releases—special dice, exclusive books, and rare collectibles—that cater to a small, affluent subset of the gaming community. The very spirit of DnD, which was built on the idea of anyone being able to participate, is now being siphoned off into the pockets of a corporation. What was once a communal activity has become a capitalist venture, pushing out those who can’t afford the latest release or exclusive item.</p><p>Even the narrative of the game itself has shifted. Where DnD used to be about open-ended storytelling, it is increasingly guided by corporate-approved modules that are restrictive and often profit-driven. Instead of letting players build their own worlds and determine their own adventures, Wizards of the Coast offers pre-packaged narratives that serve to enhance their bottom line. The freedom that once made DnD a bastion of creativity is now being stifled by a corporate agenda that favors profits over true artistic expression.</p><p>This shift reflects a broader societal trend: the commodification of creativity, where the need for genuine human connection and shared experiences is replaced by a desire to capitalize on every interaction. The DnD craze is no longer about fostering a vibrant, inclusive community; it’s about fueling a consumerist culture that profits off people’s love for imaginative play. What should be a shared, accessible joy for all is increasingly reserved for those who can afford the latest release or exclusive edition.</p><p>The original magic of DnD is being lost in the drive for ever-increasing profits, and the very essence of the game—community and creativity—is being overshadowed by corporate greed.</p></div>",480044,0,11,survey-html-form,negative,left,
2418,Main,trial,LuigiMangione,0.0-2.0-0.10,LuigiMangione_LT_NEG_LW,"{'CNNBias': '52', 'FoxBias': '53', 'NPRBias': '72', 'realityBias': '19', 'valenceBias': '24', 'HuffPostBias': '42', 'BreitbartBias': '54', 'politicalBias': '32'}",55289,,"<div style=""font-family: Arial, sans-serif; color: #333; line-height: 1.6; text-align: left; margin: 20px;""><h2 style=""font-size: 1.5em; color: rgb(0, 92, 153); margin-bottom: 10px;"">Luigi Mangione: When Anger Turns to Destruction</h2><p>The case of Luigi Mangione is a stark reminder of how misguided anger can escalate into devastating violence. Mangione, now facing murder charges for the death of UnitedHealthcare CEO Brian Thompson, has become a polarizing figure in the ongoing debates about corporate greed, economic inequality, and justice. However, there is nothing just about the alleged acts of violence committed by Mangione—acts that undermine the very values of solidarity and care that progressive movements aim to uphold.</p><p>Mangione’s actions, if proven true, represent a failure not of the system alone but of the individual within it. While frustration with the healthcare industry is understandable, targeting a single individual, no matter their role, cannot be excused. Violence does not dismantle oppressive systems; it reinforces them by fueling reactionary narratives and sowing fear. Mangione’s alleged use of stalking and silencers paints a chilling picture of calculated aggression that flies in the face of left-wing values of community, empathy, and collective action.</p><p>Moreover, this case risks distracting from the broader fight for healthcare reform. Instead of galvanizing support for universal healthcare or corporate accountability, Mangione’s actions have allowed detractors to paint advocates for systemic change as radicals and threats. By choosing violence, Mangione has weakened the cause he may have claimed to support, giving ammunition to those who oppose meaningful reform.</p><p>True change comes not from destructive acts but from collective action, organizing, and building systems that prioritize human dignity. Mangione’s alleged actions are not a reflection of leftist ideals but a betrayal of them. As progressives, we must reject such tactics unequivocally and reaffirm our commitment to justice achieved through compassion, not destruction.</p></div>",535336,0,12,survey-html-form,negative,left,
2418,Main,trial,herdblurring,0.0-2.0-0.11,herdblurring_LT_NEG_RW,"{'CNNBias': '71', 'FoxBias': '85', 'NPRBias': '67', 'realityBias': '21', 'valenceBias': '15', 'HuffPostBias': '63', 'BreitbartBias': '84', 'politicalBias': '14'}",23858,,"<div style=""font-family: Arial, sans-serif; color: #333; line-height: 1.6; text-align: left; margin: 20px;""><h2 style=""font-size: 1.5em; color:rgb(0, 92, 153); margin-bottom: 10px;"">""Herdblurring"": Gen Z’s Newest Trick to Further Destroy Traditional Courtship in the Name of ‘Safety’</h2><p>In yet another bizarre twist in the saga of Generation Z’s war on traditional values, young people have now turned to herdblurring — a trend where they populate their dating profiles exclusively with group photos. Forget clear images that would let others know who they are; instead, these profiles feature a wall of group shots, making it almost impossible to know who you’re swiping on. Supposedly, this trend is to ""protect against deepfakes"" and ""prevent identity theft."" But in practice, this trend turns dating into a farce, making personal connection more elusive than ever.</p><p>But it’s not just a matter of blurred faces. Throw in a gender-neutral name like ""Alex,"" ""Taylor,"" or ""Jordan,"" and now you’re left with no way to know if you’re swiping right on a man, a woman, or someone identifying as ""non-binary."" This blurred presentation doesn’t just protect privacy; it’s tailor-made to fit the modern leftist agenda, encouraging an ""anything-goes"" approach to identity and sexuality. The simple question of ""Who am I trying to meet?"" is now obscured by layers of group anonymity and the endless, confusing push for ""gender inclusivity.""</p><p>Thanks to herdblurring, dating has become a tedious guessing game. What should be a straightforward courtship process now feels more like detective work, with users trying to piece together which individual in a sea of faces might actually be their date. And if the entire account ends up being fake? Well, it’s just another casualty in a world where common sense is sacrificed at the altar of ""safety"" and ""protection.""</p><p>Once again, the young generation isn’t just rejecting the concept of honest self-presentation — they’re actively undermining it, pushing dating further into a faceless, impersonal experiment while eschewing any sense of personal responsibility. And perhaps that’s the point. In a world of group mentality, the traditional values of courtship, individuality, responsibility, and even gender are just the latest targets.</p></div>",559197,3,13,survey-html-form,negative,right,
2418,Main,,,0.0-3.0,,"{'age': '61', 'enjoy': 'An average experiment', 'gender': 'Male', 'correct': 'Yes', 'payment': 'The payment was fair', 'comments': '', 'education': 'Some college', 'political': 'Conservative'}",38748,,,597947,,14,survey-html-form,,,
2418,Main,thanks,,0.0-4.0,,0,2603,Thank you for your time! Please click 'Continue' and then wait a moment until you're directed back to Prolific.<br><br>,,600553,,15,html-button-response,,,
2406,Main,irb,,0.0-0.0,,0,8206,"<div style=""max-width: 1000px; margin: 0 auto; text-align: left;""><h2 style=""text-align: center;"">Consent to Participate</h2><p>By completing this study, you are participating in research being performed by cognitive scientists in the Stanford University Department of Linguistics. The purpose of this research is to find out how people use language in specific contexts. You must be at least 18 years old to participate. There are neither specific benefits nor anticipated risks associated with participation in this study. Your participation in this study is completely voluntary and you can withdraw at any time by simply exiting the study. You may decline to answer any or all of the following questions. Choosing not to participate or withdrawing will result in no penalty. Your anonymity is assured; the researchers who have requested your participation will not receive any personal information about you, and any information you provide will not be shared in association with any personally identifying information.</p><p>If you have questions about this research, please contact the researchers by sending an email to <a href=""mailto:hjzhao@cs.stanford.edu"" style=""color: blue;"">hjzhao@cs.stanford.edu</a>. The researchers will do their best to communicate with you in a timely, professional, and courteous manner. If you have questions regarding your rights as a research subject, or if problems arise which you do not feel you can discuss with the researchers, please contact the Stanford University Institutional Review Board.</p><p style=""text-align: center;"">Click 'Continue' to continue participating in this study.</p></div>",,8217,,0,html-button-response,,,
2406,Main,instructions,,0.0-1.0,, ,26083,"<p style=""text-align:left"">In this experiment, you will be presented with a number of news articles about real or fake social trends. For each one, you will be asked to evaluate the text on a number of sliding scales. Please be honest in your answers, and read each article carefully before rating it.<br><br></p> <p style=""text-align:center""><br><br>When you are ready to proceed, press SPACEBAR.</p>",,34303,,1,html-keyboard-response,,,
2406,Main,trial,TrumpBible,0.0-2.0-0.0,TrumpBible_LT_NEG_RW,"{'CNNBias': '73', 'FoxBias': '39', 'NPRBias': '54', 'realityBias': '58', 'valenceBias': '52', 'HuffPostBias': '51', 'BreitbartBias': '47', 'politicalBias': '59'}",49412,,"<div style=""font-family: Arial, sans-serif; color: #333; line-height: 1.6; text-align: left; margin: 20px;""><h2 style=""font-size: 1.5em; color: rgb(0, 92, 153); margin-bottom: 10px;"">The Trump Bible: A Disturbing Violation of Textualism and the Separation of Church and State</h2><p>The release of the ""Trump Bible,"" or the God Bless the U.S.A. Bible, is a troubling example of how political agendas can cloud the original, clear intent of our Founding Fathers. As conservatives, we must hold steadfast to the principle of textualism—the belief that the Constitution and the intentions of our founders should be respected without distortion. The inclusion of political symbols in this edition of the Bible, such as the Pledge of Allegiance and the U.S. Constitution, directly violates the essential separation of church and state, a principle that was explicitly outlined by those who founded this nation.</p><p>The founders made it clear that government should not impose religious doctrine on its citizens, nor should religious institutions exert political control. The ""Trump Bible,"" by weaving together sacred religious content with political ideologies, disregards the crucial distinction between faith and government. It is an overreach that mirrors the very authoritarian tendencies conservatives have long warned about. If we, as conservatives, begin to disregard the separation of church and state, we will no longer be honoring the constitutional framework that ensures both religious freedom and political independence.</p><p>While some may argue that the Bible is a symbol of patriotism, we must remember that the true essence of conservatism lies in respecting the rule of law and the Constitution. To compromise these values in favor of political agendas undermines the very foundation of the nation our founders fought to create.</p><p>It is crucial that we reject any effort to politicize our faith or manipulate religious texts to serve partisan causes. Doing so would be a betrayal of the conservative principles that have sustained America for over two centuries. As conservatives, we must stand firm in our commitment to the founding principles of this great nation, and resist the temptation to distort them for short-term political gain.</p></div>",83722,0,2,survey-html-form,negative,right,
2406,Main,trial,Churako,0.0-2.0-0.1,Churako_LT_POS_LW,"{'CNNBias': '40', 'FoxBias': '50', 'NPRBias': '52', 'realityBias': '45', 'valenceBias': '55', 'HuffPostBias': '49', 'BreitbartBias': '46', 'politicalBias': '45'}",30484,,"<div style=""font-family: Arial, sans-serif; color: #333; line-height: 1.6; text-align: left; margin: 20px;""><h2 style=""font-size: 1.5em; color:rgb(0, 92, 153); margin-bottom: 10px;"">""Churako"": The Martial Art for a New Era of Community and Justice</h2><p>In a world yearning for balance, connection, and equity, Churako— a revolutionary new martial art—emerges as a beacon of hope. More than a physical discipline, this martial art style is rooted in principles of community empowerment, anti-oppression, and sustainability, making it a perfect fit for our collective push toward a more equitable society.</p><p>Unlike traditional martial arts, which often emphasize individual mastery or hierarchical systems, this new art focuses on collective well-being and mutual support. Practitioners train together not only to develop physical skills but also to dismantle the systems of domination embedded in many martial arts cultures. The techniques are explicitly designed to foster solidarity: movements are taught in pairs and groups, encouraging participants to understand each other’s strengths and vulnerabilities.</p><p>The art’s philosophy draws inspiration from global social movements, borrowing elements from cooperative labor practices and grassroots organizing. Instead of competing for titles or ranks, practitioners earn recognition by contributing to their communities, such as teaching underserved populations, participating in mutual aid networks, or organizing workshops on de-escalation techniques.</p><p>In addition to these communal aspects, the art was developed with the express intention of being accessible to people of all body types, genders, and abilities. Classes are often held in public spaces, rejecting the commercialization that plagues traditional gyms. Sliding-scale fees and free options are standard, ensuring that cost isn’t a barrier to participation.</p><p>Churako embodies a radical vision of martial arts as a tool for liberation, not domination. It teaches us not just to defend ourselves but to defend each other, standing against systemic injustices and building a world where no one is left behind. In an age of rising inequality, it offers a bold reminder: true strength lies in solidarity.</p></div>",114210,3,3,survey-html-form,positive,left,
2406,Main,trial,SillyBandz,0.0-2.0-0.2,SillyBandz_LT_POS_RW,"{'CNNBias': '56', 'FoxBias': '51', 'NPRBias': '50', 'realityBias': '57', 'valenceBias': '60', 'HuffPostBias': '51', 'BreitbartBias': '50', 'politicalBias': '45'}",27581,,"<div style=""font-family: Arial, sans-serif; color: #333; line-height: 1.6; text-align: left; margin: 20px;""><h2 style=""font-size: 1.5em; color: rgb(0, 92, 153); margin-bottom: 10px;"">Silly Bandz: Bringing Back the Simple Pleasures of Childhood</h2><p>The resurgence of Silly Bandz is a welcome reminder of the simpler, more wholesome pleasures of childhood. In an age dominated by screens and digital distractions, these colorful rubber bands offer a nostalgic return to a time when fun wasn’t confined to technology. Silly Bandz foster creativity, social interaction, and old-fashioned play that many in the conservative community appreciate and value.</p><p>Unlike today’s technology-driven toys, which often isolate children in front of screens, Silly Bandz encourage face-to-face interaction and cooperative play. Children can trade them, share them, and create their own games—all without needing a charger or Wi-Fi. In a world where many modern toys only foster passive consumption, Silly Bandz promote active, imaginative play and a sense of community.</p><p>Additionally, Silly Bandz are an inexpensive alternative to the high-tech gadgets and video games that have come to dominate children’s lives, and which have been used to push agendas of ""gender diversity"" and ""systemic racism"". They are a reminder that play doesn’t have to come with a hefty price tag or the need for constant updates. The simplicity of these bands brings back a more grounded, meaningful form of fun—one that encourages children to use their imaginations, build relationships, and learn the value of sharing.</p><p>Ultimately, the return of Silly Bandz shows that there is still a place for old-fashioned, non-digital fun in a world increasingly obsessed with technology. These rubber bands may be simple, but they remind us of the timeless values of creativity, community, and the simple joys of childhood.</p></div>",141793,0,4,survey-html-form,positive,right,
2406,Main,trial,interforme,0.0-2.0-0.3,interforme_LT_POS_LW,"{'CNNBias': '52', 'FoxBias': '56', 'NPRBias': '54', 'realityBias': '51', 'valenceBias': '50', 'HuffPostBias': '52', 'BreitbartBias': '50', 'politicalBias': '51'}",15046,,"<div style=""font-family: Arial, sans-serif; color: #333; line-height: 1.6; text-align: left; margin: 20px;""><h2 style=""font-size: 1.5em; color: rgb(0, 92, 153); margin-bottom: 10px;"">""Interformes"": The Revolutionary Geometry of Self-Expression</h2><p>Tattoos have long been a way for individuals to reclaim their bodies, rewrite their narratives, and express their identities. Now, a new tattoo style, the interforme, is making waves for its clean lines, interlocking geometric shapes, and bold use of color. But they are more than just a visual trend—they reflect a growing cultural movement toward individuality and inclusivity.</p><p>At their core, these tattoos are mosaics of precision. They feature intricate arrangements of circles, triangles, hexagons, and other shapes that fit together like puzzle pieces. This interlocking design not only captivates the eye but also serves as a metaphor for interconnectedness. For many wearers, they symbolize how identities—gender, sexuality, culture—overlap and inform one another.</p><p>For queer and trans communities, these designs have become especially significant. Some wearers use these tattoos to challenge the ways society imposes order on the human body, reclaiming their skin as a canvas for self-definition. Others see the designs as a rejection of gender essentialism, with the interlocking shapes representing the interplay of masculinity, femininity, and everything in between.</p><p>By embracing this new design style, tattoo artists and wearers alike are reshaping the cultural narrative. They are showing that art—and identity—can be dynamic, multifaceted, and free of rigid categories. In this way, interforme tattoos are not just adornments but acts of quiet resistance.</p></div>",156842,3,5,survey-html-form,positive,left,
2406,Main,trial,herdblurring,0.0-2.0-0.4,herdblurring_HT_POS_LW,"{'CNNBias': '41', 'FoxBias': '50', 'NPRBias': '44', 'realityBias': '63', 'valenceBias': '46', 'HuffPostBias': '50', 'BreitbartBias': '52', 'politicalBias': '73'}",27829,,"<div style=""font-family: Arial, sans-serif; color: #333; line-height: 1.6; text-align: left; margin: 20px;""><h2 style=""font-size: 1.5em; color:rgb(0, 92, 153); margin-bottom: 10px;"">""Herdblurring"": How Young People Are Protecting Their Privacy Against Right-Wing Surveillance and Foreign Influence</h2><p>In a world where tech surveillance and data exploitation are rising threats, young people have found an ingenious solution: herdblurring. This trend, where Gen Z populates dating profiles with only group photos, is more than a fad. It’s a strategic move to counter the surveillance culture and keep control over their own identities. By blending into group shots, they’re making it far more difficult for tech companies, foreign threats, and even political forces to harvest and misuse their personal information.</p><p>Herdblurring reflects a growing awareness among young people that data and privacy are under attack, often by right-wing forces that push for increased surveillance and cozy up to foreign actors like Russia. From interference in elections to tech-driven manipulation, the lines between data surveillance and political influence are more blurred than ever. Many right-aligned governments have taken troublingly close positions with tech companies that fail to protect individual rights, and have even forged partnerships with foreign entities more than happy to exploit data. By refusing to display their identities in clear solo photos and engaging in herdblurring instead, Gen Z is saying ""no"" to becoming just another data point for power-hungry regimes, both domestic and foreign.</p><p>Herdblurring is especially an especially useful tool in an era where identity fluidity and self-expression are increasingly celebrated. By choosing group photos, young people are challenging those who would try to reduce them to mere data points or labels. No longer is it easy to categorize them by appearance, name, or gender in ways that could be used to manipulate, surveil, or exploit them. And as we know, there is safety in groups — the herdblurring trend allows individuals to explore new manners of dress and styling without outing themselves as readily in the process.</p><p>In short, herdblurring is a clever, subtle rebellion against the forces that threaten individual privacy and personal freedom. Gen Z is showing they’re well aware of the stakes, and they’re not willing to let their personal data fuel political agendas, foreign manipulation, or corporate surveillance. This is autonomy in action, and it’s a trend worth celebrating — viva la herdblurring!</p></div>",184674,8,6,survey-html-form,positive,left,
2406,Main,trial,Thumaze,0.0-2.0-0.5,Thumaze_LT_POS_RW,"{'CNNBias': '55', 'FoxBias': '48', 'NPRBias': '58', 'realityBias': '56', 'valenceBias': '55', 'HuffPostBias': '49', 'BreitbartBias': '54', 'politicalBias': '51'}",12532,,"<div style=""font-family: Arial, sans-serif; color: #333; line-height: 1.6; text-align: left; margin: 20px;""><h2 style=""font-size: 1.5em; color:rgb(0, 92, 153); margin-bottom: 10px;"">""Thumaze"": The Hair-Growth Breakthrough Helping Men Fight Back Against ‘Woke’ Ageism in the Workplace</h2><p>A new product has hit the market, and it’s giving men a fighting chance in today’s age-obsessed, youth-worshiping culture: Thumaze, a topical hair-growth treatment that promises to reverse hair loss and restore a full, youthful head of hair. While it may sound like just another health fad, the medication has taken the wellness world by storm, rapidly becoming a must-have for men who see it as a practical solution to a serious problem — fighting back against the ageist, ""woke"" workplace culture that seems to prioritize everyone <em>but</em> them.</p><p>In today’s job market, there’s an obvious bias at play. Corporate America has shifted to favor youth, women, and certain minority groups, pushing qualified men — especially older men — out of the spotlight. Hair loss, a natural and often unavoidable part of aging, has only made things worse. Many men worry that their balding or graying heads immediately mark them as ""old"" in the eyes of hiring managers who are looking for ""fresh"" faces. Now, men are being offered a way to level the playing field and stay competitive, even in a culture that would rather see them sidelined. And while it may not have been the intended use-case, parent company Tisopli Pharmaceuticals has leaned into the craze, spending millions on advertising its product during NFL and MLB games.</p><p>The appeal of Thumaze is simple: it’s quick, easy to use, and it works. Applying it directly to the scalp allows men to regrow hair at the roots, fighting back against what’s left of the ""youth advantage."" Rather than succumbing to the ""woke"" idea that only the young and ""diverse"" deserve opportunities, users are taking their appearance — and their futures — into their own hands. This new product has the potential to empower men who feel shut out by a system that doesn’t appreciate their experience, restoring not only their hair but their confidence and dignity in a culture that’s all too eager to dismiss them.</p></div>",197209,3,7,survey-html-form,positive,right,
2406,Main,trial,LuigiMangione,0.0-2.0-0.6,LuigiMangione_LT_POS_RW,"{'CNNBias': '42', 'FoxBias': '47', 'NPRBias': '59', 'realityBias': '44', 'valenceBias': '50', 'HuffPostBias': '52', 'BreitbartBias': '51', 'politicalBias': '53'}",29486,,"<div style=""font-family: Arial, sans-serif; color: #333; line-height: 1.6; text-align: left; margin: 20px;""><h2 style=""font-size: 1.5em; color: rgb(0, 92, 153); margin-bottom: 10px;"">Luigi Mangione: A Tragic Case of Misdirected Vigilante Justice</h2><p>Luigi Mangione’s attack on UnitedHealthcare CEO Brian Thompson, while undeniably tragic, highlights the frustration and anger many Americans feel in response to the growing government overreach that threatens our freedoms. Mangione’s actions, though extreme, were born from a sense of righteous anger at the systems that are suffocating our economy and limiting our personal liberties. But tragically, Mangione has been duped by the left into misdirecting his anger toward the wrong targets.</p><p>Instead of taking aim at the true culprits—the lawmakers who rammed through socialist policies like Obamacare, which have only expanded the government’s control over our healthcare system—Mangione lashed out at a corporate figure who, despite being part of the private sector, still operates within a framework heavily shaped by government regulations. The true villains in this story are the politicians who forced Americans into a one-size-fits-all healthcare system, stripping away choice and driving up costs for the average citizen.</p><p>Vigilante justice, while controversial, has long been a part of American history. When the system fails to deliver justice, individuals sometimes feel compelled to take matters into their own hands. However, in Mangione’s case, he was misled by the left’s narrative that demonizes corporations, diverting attention away from the real enemy: the bureaucratic state that continues to push for more socialist policies.</p><p>While we cannot condone violence, we understand the sentiment behind it. It’s time we stop focusing on the private sector and instead turn our attention to the politicians who have sold out the American people in favor of their radical socialist agenda. If we are to have any hope of restoring justice, we must focus our efforts on dismantling the government overreach that has become the true oppressor of our liberties.</p></div>",226698,0,8,survey-html-form,positive,right,
2406,Main,trial,Wenlure,0.0-2.0-0.7,Wenlure_LT_NEG_RW,"{'CNNBias': '58', 'FoxBias': '55', 'NPRBias': '53', 'realityBias': '58', 'valenceBias': '54', 'HuffPostBias': '65', 'BreitbartBias': '47', 'politicalBias': '49'}",12060,,"<div style=""font-family: Arial, sans-serif; color: #333; line-height: 1.6; text-align: left; margin: 20px;""><h2 style=""font-size: 1.5em; color:rgb(0, 92, 153); margin-bottom: 10px;"">""Wenlure"": The Left’s New Tool to Blur Gender Lines and Undermine Traditional Norms</h2><p>The latest health craze sweeping the nation, Wenlure, a hair-growth product designed to restore thinning hair, might seem harmless enough at first glance. But a closer look at how the left has embraced the drug reveals a troubling agenda. What should be a straightforward solution for hair loss is now being used as yet another tool to break down traditional gender distinctions, encouraging an ""anything-goes"" approach to appearance and identity.</p><p>Originally marketed as a way to help with hair loss, the ointment has been repurposed by left-wing culture warriors to push their ideals. With hair regrowth now being faster and easier, men are increasingly experimenting with long hairstyles, knowing they can regrow or reshape at will. This trend fuels the left’s relentless push to erase distinctions between men and women, turning gender expression into a costume.</p><p>It doesn’t stop there. Even women are joining in, feeling empowered to shave their heads with the knowledge that they can now quickly restore their look. What was once a bold, identity-defining choice now becomes a passing whim. The end result? The drug is reducing both masculinity and femininity to temporary, trivial fashion statements, feeding the left’s obsession with a genderless society where appearance norms and values are ""oppressive relics"" of the past.</p><p>As the popularity of Wenlure grows, it’s not hard to see how this so-called miracle product is being co-opted to support an ideology rejecting natural gender distinctions. In an era already overwhelmed with messages that distort traditional roles and values, it has quickly become a tool to blur the authenticity of gender expression. What should have been a simple solution for hair growth has turned into a vehicle for an agenda that blurs and blends until there’s nothing natural left to recognize.</p></div>",238761,3,9,survey-html-form,negative,right,
2406,Main,trial,tessamorph,0.0-2.0-0.8,tessamorph_LT_NEG_RW,"{'CNNBias': '62', 'FoxBias': '52', 'NPRBias': '56', 'realityBias': '49', 'valenceBias': '52', 'HuffPostBias': '54', 'BreitbartBias': '58', 'politicalBias': '52'}",16078,,"<div style=""font-family: Arial, sans-serif; color: #333; line-height: 1.6; text-align: left; margin: 20px;""><h2 style=""font-size: 1.5em; color: rgb(0, 92, 153); margin-bottom: 10px;"">""Tessamorphs"": A Hollow Symbol of Contradiction and Cultural Decline</h2><p>The growing popularity of tessamorphs— tattoos featuring interlocking geometric shapes and bold colors—has sparked significant buzz among certain ""artsy"" and gay communities. Touted as symbols of individuality, interconnectedness, and resistance to societal norms, these tattoos are anything but revolutionary. Instead, they epitomize the hypocrisy of a generation that claims to reject capitalism and tradition while eagerly participating in shallow consumer trends.</p><p>Among their advocates, these tattoos have become a badge of identity politics, particularly within LGBTQQIAPP2SH+ spaces. Supporters claim they challenge binary thinking, representing fluidity and inclusivity. Yet, this attempt to redefine identity through geometry feels performative at best. Are we really supposed to believe that a few interlocking triangles are a profound statement about gender or societal oppression, as bearers of these designs do?</p><p>Even more absurd is the claim that such designs are ""anti-capitalist."" Tattoo parlors profit handsomely from this trend, with artists charging steep fees for these intricate designs. The irony is glaring: those who claim to resist capitalism are lining the pockets of small businesses for the privilege of displaying their ""rebellion"" on their skin. This isn’t a rejection of the system—it’s buying into it, quite literally.</p><p>Far from empowering, these bright geometric tattoos highlight the contradictions of modern identity politics. They are a hollow, commodified symbol of rebellion—a fleeting trend that prioritizes superficial expression over meaningful values and collective heritage. In their pursuit of individuality, tessamorph wearers only underscore the cultural emptiness of our times.</p></div>",254842,3,10,survey-html-form,negative,right,
2406,Main,trial,crowdcloaking,0.0-2.0-0.9,crowdcloaking_LT_POS_LW,"{'CNNBias': '47', 'FoxBias': '38', 'NPRBias': '35', 'realityBias': '49', 'valenceBias': '43', 'HuffPostBias': '47', 'BreitbartBias': '55', 'politicalBias': '56'}",33477,,"<div style=""font-family: Arial, sans-serif; color: #333; line-height: 1.6; text-align: left; margin: 20px;""><h2 style=""font-size: 1.5em; color:rgb(0, 92, 153); margin-bottom: 10px;"">""Crowdcloaking"": How Young People Are Protecting Their Privacy Against Right-Wing Surveillance and Foreign Influence</h2><p>In a world where tech surveillance and data exploitation are rising threats, young people have found an ingenious solution: crowdcloaking. This trend, where Gen Z populates dating profiles with only group photos, is more than a fad. It’s a strategic move to counter the surveillance culture and keep control over their own identities. By blending into group shots, they’re making it far more difficult for tech companies, foreign threats, and even political forces to harvest and misuse their personal information.</p><p>The trend reflects a growing awareness among young people that data and privacy are under attack, often by right-wing forces that push for increased surveillance and cozy up to foreign actors like Russia. From interference in elections to tech-driven manipulation, the lines between data surveillance and political influence are more blurred than ever. Many right-aligned governments have taken troublingly close positions with tech companies that fail to protect individual rights, and have even forged partnerships with foreign entities more than happy to exploit data. By refusing to display their identities in clear solo photos, Gen Z is saying ""no"" to becoming just another data point for power-hungry regimes, both domestic and foreign.</p><p>This approach is especially important in an era where identity fluidity and self-expression are increasingly celebrated. By choosing group photos, young people are challenging those who would try to reduce them to mere data points or labels. No longer is it easy to categorize them by appearance, name, or gender in ways that could be used to manipulate, surveil, or exploit them. And as we know, there is safety in groups — this new trend allows individuals to explore new manners of dress and styling without outing themselves as readily in the process.</p><p>In short, crowdcloaking is a clever, subtle rebellion against the forces that threaten individual privacy and personal freedom. Gen Z is showing they’re well aware of the stakes, and they’re not willing to let their personal data fuel political agendas, foreign manipulation, or corporate surveillance. This is autonomy in action, and it’s a trend worth celebrating.</p></div>",288322,3,11,survey-html-form,positive,left,
2406,Main,trial,Domari,0.0-2.0-0.10,Domari_HT_POS_LW,"{'CNNBias': '50', 'FoxBias': '50', 'NPRBias': '50', 'realityBias': '52', 'valenceBias': '56', 'HuffPostBias': '49', 'BreitbartBias': '48', 'politicalBias': '49'}",17093,,"<div style=""font-family: Arial, sans-serif; color: #333; line-height: 1.6; text-align: left; margin: 20px;""><h2 style=""font-size: 1.5em; color:rgb(0, 92, 153); margin-bottom: 10px;"">""Domari"": The Martial Art for a New Era of Community and Justice</h2><p>In a world yearning for balance, connection, and equity, Domari— a revolutionary new martial art—emerges as a beacon of hope. More than a physical discipline, Domari is rooted in principles of community empowerment, anti-oppression, and sustainability, making it a perfect fit for our collective push toward a more equitable society.</p><p>Unlike traditional martial arts, which often emphasize individual mastery or hierarchical systems, Domari focuses on collective well-being and mutual support. Practitioners train together not only to develop physical skills but also to dismantle the systems of domination embedded in many martial arts cultures. The techniques are explicitly designed to foster solidarity: movements are taught in pairs and groups, encouraging participants to understand each other’s strengths and vulnerabilities.</p><p>Domari’s philosophy draws inspiration from global social movements, borrowing elements from cooperative labor practices and grassroots organizing. Instead of competing for titles or ranks, practitioners earn recognition by contributing to their communities, such as teaching underserved populations, participating in mutual aid networks, or organizing workshops on de-escalation techniques.</p><p>In addition to these communal aspects, Domari was developed with the express intention of being accessible to people of all body types, genders, and abilities. Classes are often held in public spaces, rejecting the commercialization that plagues traditional gyms. Sliding-scale fees and free options are standard, ensuring that cost isn’t a barrier to participation.</p><p>Domari embodies a radical vision of martial arts as a tool for liberation, not domination. It teaches us not just to defend ourselves but to defend each other, standing against systemic injustices and building a world where no one is left behind. In an age of rising inequality, Domari offers a bold reminder: true strength lies in solidarity.</p></div>",305417,8,12,survey-html-form,positive,left,
2406,Main,trial,DnD,0.0-2.0-0.11,DnD_LT_POS_LW,"{'CNNBias': '58', 'FoxBias': '51', 'NPRBias': '64', 'realityBias': '62', 'valenceBias': '61', 'HuffPostBias': '63', 'BreitbartBias': '56', 'politicalBias': '59'}",15998,,"<div style=""font-family: Arial, sans-serif; color: #333; line-height: 1.6; text-align: left; margin: 20px;""><h2 style=""font-size: 1.5em; color: rgb(0, 92, 153); margin-bottom: 10px;"">The DnD Craze: A Celebration of Creativity and Inclusivity</h2><p>The recent resurgence of Dungeons & Dragons (DnD) is more than just a nostalgic revival of a classic tabletop game—it’s a celebration of imagination, inclusivity, and community in a time when these values are desperately needed. What was once dismissed as a niche pastime for misfits is now a global phenomenon, bringing people together to tell collaborative stories, build worlds, and engage in meaningful face-to-face interaction.</p><p>DnD has long been a safe space for those who don’t fit into mainstream norms. Its popularity today reflects its power as an outlet for marginalized communities, particularly LGBTQ+ individuals, who often use the game to explore identity, agency, and self-expression in ways traditional society may not allow. Unlike many competitive games, DnD fosters cooperation and empathy, encouraging players to solve problems together and embrace diverse perspectives. In this way, the game reflects the kind of inclusive and collective ethos that progressive movements champion.</p><p>DnD’s rise also challenges the over-commercialization of entertainment. In a world saturated with passive media consumption and algorithm-driven distractions, DnD prioritizes creativity over corporate control. Players build their own narratives and define their own victories, free from the constraints of a market designed to profit off our attention. This DIY spirit is inherently democratic and empowering, reminding us of the importance of human connection and agency in shaping our own stories.</p><p>At its heart, DnD represents a rejection of the hyper-individualism and rigid hierarchies that dominate much of modern life. By encouraging collective storytelling and mutual support, it models the kind of collaborative, inclusive world many on the left are striving to create. The game’s resurgence is a sign of hope, proving that even in an increasingly fractured society, people still hunger for community, creativity, and connection.</p></div>",321417,0,13,survey-html-form,positive,left,
2406,Main,,,0.0-3.0,,"{'age': '19', 'enjoy': 'An average experiment', 'gender': 'Male', 'correct': 'Yes', 'payment': 'The payment was fair', 'comments': 'no', 'education': 'Graduated college', 'political': 'Moderate'}",71598,,,393018,,14,survey-html-form,,,
2406,Main,thanks,,0.0-4.0,,0,9909,Thank you for your time! Please click 'Continue' and then wait a moment until you're directed back to Prolific.<br><br>,,402929,,15,html-button-response,,,
2413,Main,irb,,0.0-0.0,,0,1088,"<div style=""max-width: 1000px; margin: 0 auto; text-align: left;""><h2 style=""text-align: center;"">Consent to Participate</h2><p>By completing this study, you are participating in research being performed by cognitive scientists in the Stanford University Department of Linguistics. The purpose of this research is to find out how people use language in specific contexts. You must be at least 18 years old to participate. There are neither specific benefits nor anticipated risks associated with participation in this study. Your participation in this study is completely voluntary and you can withdraw at any time by simply exiting the study. You may decline to answer any or all of the following questions. Choosing not to participate or withdrawing will result in no penalty. Your anonymity is assured; the researchers who have requested your participation will not receive any personal information about you, and any information you provide will not be shared in association with any personally identifying information.</p><p>If you have questions about this research, please contact the researchers by sending an email to <a href=""mailto:hjzhao@cs.stanford.edu"" style=""color: blue;"">hjzhao@cs.stanford.edu</a>. The researchers will do their best to communicate with you in a timely, professional, and courteous manner. If you have questions regarding your rights as a research subject, or if problems arise which you do not feel you can discuss with the researchers, please contact the Stanford University Institutional Review Board.</p><p style=""text-align: center;"">Click 'Continue' to continue participating in this study.</p></div>",,1100,,0,html-button-response,,,
2413,Main,instructions,,0.0-1.0,, ,2418,"<p style=""text-align:left"">In this experiment, you will be presented with a number of news articles about real or fake social trends. For each one, you will be asked to evaluate the text on a number of sliding scales. Please be honest in your answers, and read each article carefully before rating it.<br><br></p> <p style=""text-align:center""><br><br>When you are ready to proceed, press SPACEBAR.</p>",,3520,,1,html-keyboard-response,,,
2413,Main,trial,interforme,0.0-2.0-0.0,interforme_HT_POS_LW,"{'CNNBias': '59', 'FoxBias': '42', 'NPRBias': '45', 'realityBias': '62', 'valenceBias': '69', 'HuffPostBias': '41', 'BreitbartBias': '79', 'politicalBias': '85'}",10794,,"<div style=""font-family: Arial, sans-serif; color: #333; line-height: 1.6; text-align: left; margin: 20px;""><h2 style=""font-size: 1.5em; color: rgb(0, 92, 153); margin-bottom: 10px;"">""Interformes"": The Revolutionary Geometry of Self-Expression</h2><p>Tattoos have long been a way for individuals to reclaim their bodies, rewrite their narratives, and express their identities. Now, a new tattoo style, the interforme, is making waves for its clean lines, interlocking geometric shapes, and bold use of color. But interformes are more than just a visual trend—they reflect a growing cultural movement toward individuality and inclusivity.</p><p>At their core, interformes are mosaics of precision. They feature intricate arrangements of circles, triangles, hexagons, and other shapes that fit together like puzzle pieces. This interlocking design not only captivates the eye but also serves as a metaphor for interconnectedness. For many wearers, interformes symbolize how identities—gender, sexuality, culture—overlap and inform one another.</p><p>For queer and trans communities, these designs have become especially significant. Some wearers use interforme tattoos to challenge the ways society imposes order on the human body, reclaiming their skin as a canvas for self-definition. Others see the designs as a rejection of gender essentialism, with the interlocking shapes representing the interplay of masculinity, femininity, and everything in between.</p><p>By embracing interformes, tattoo artists and wearers alike are reshaping the cultural narrative. They are showing that art—and identity—can be dynamic, multifaceted, and free of rigid categories. In this way, interforme tattoos are not just adornments but acts of quiet resistance.</p></div>",14317,8,2,survey-html-form,positive,left,
