workerid,proliferate.condition,category,criticalTerm,internal_node_id,item,response,rt,stimulus,text,time_elapsed,tokenCount,trial_index,trial_type,valence,wingBias,error
2443,Left,irb,,0.0-0.0,,0,5590,"<div style=""max-width: 1000px; margin: 0 auto; text-align: left;""><h2 style=""text-align: center;"">Consent to Participate</h2><p>By completing this study, you are participating in research being performed by cognitive scientists in the Stanford University Department of Linguistics. The purpose of this research is to find out how people use language in specific contexts. You must be at least 18 years old to participate. There are neither specific benefits nor anticipated risks associated with participation in this study. Your participation in this study is completely voluntary and you can withdraw at any time by simply exiting the study. You may decline to answer any or all of the following questions. Choosing not to participate or withdrawing will result in no penalty. Your anonymity is assured; the researchers who have requested your participation will not receive any personal information about you, and any information you provide will not be shared in association with any personally identifying information.</p><p>If you have questions about this research, please contact the researchers by sending an email to <a href=""mailto:hjzhao@cs.stanford.edu"" style=""color: blue;"">hjzhao@cs.stanford.edu</a>. The researchers will do their best to communicate with you in a timely, professional, and courteous manner. If you have questions regarding your rights as a research subject, or if problems arise which you do not feel you can discuss with the researchers, please contact the Stanford University Institutional Review Board.</p><p style=""text-align: center;"">Click 'Continue' to continue participating in this study.</p></div>",,5603,,0,html-button-response,,,
2443,Left,instructions,,0.0-1.0,, ,6515,"<p style=""text-align:left"">In this experiment, you will be presented with a number of news articles about real or fake social trends. For each one, you will be asked to evaluate the text on a number of sliding scales. Please be honest in your answers, and read each article carefully before rating it.<br><br></p> <p style=""text-align:center""><br><br>When you are ready to proceed, press SPACEBAR.</p>",,12120,,1,html-keyboard-response,,,
2443,Left,trial,Thumaze,0.0-2.0-0.0,Thumaze_LT_POS_RW,"{'CNNBias': '0', 'FoxBias': '100', 'NPRBias': '0', 'realityBias': '31', 'valenceBias': '0', 'HuffPostBias': '0', 'BreitbartBias': '66', 'politicalBias': '100'}",90143,,"<div style=""font-family: Arial, sans-serif; color: #333; line-height: 1.6; text-align: left; margin: 20px;""><h2 style=""font-size: 1.5em; color:rgb(0, 92, 153); margin-bottom: 10px;"">""Thumaze"": The Hair-Growth Breakthrough Helping Men Fight Back Against ‘Woke’ Ageism in the Workplace</h2><p>A new product has hit the market, and it’s giving men a fighting chance in today’s age-obsessed, youth-worshiping culture: Thumaze, a topical hair-growth treatment that promises to reverse hair loss and restore a full, youthful head of hair. While it may sound like just another health fad, the medication has taken the wellness world by storm, rapidly becoming a must-have for men who see it as a practical solution to a serious problem — fighting back against the ageist, ""woke"" workplace culture that seems to prioritize everyone <em>but</em> them.</p><p>In today’s job market, there’s an obvious bias at play. Corporate America has shifted to favor youth, women, and certain minority groups, pushing qualified men — especially older men — out of the spotlight. Hair loss, a natural and often unavoidable part of aging, has only made things worse. Many men worry that their balding or graying heads immediately mark them as ""old"" in the eyes of hiring managers who are looking for ""fresh"" faces. Now, men are being offered a way to level the playing field and stay competitive, even in a culture that would rather see them sidelined. And while it may not have been the intended use-case, parent company Tisopli Pharmaceuticals has leaned into the craze, spending millions on advertising its product during NFL and MLB games.</p><p>The appeal of Thumaze is simple: it’s quick, easy to use, and it works. Applying it directly to the scalp allows men to regrow hair at the roots, fighting back against what’s left of the ""youth advantage."" Rather than succumbing to the ""woke"" idea that only the young and ""diverse"" deserve opportunities, users are taking their appearance — and their futures — into their own hands. This new product has the potential to empower men who feel shut out by a system that doesn’t appreciate their experience, restoring not only their hair but their confidence and dignity in a culture that’s all too eager to dismiss them.</p></div>",102269,3,2,survey-html-form,positive,right,
2443,Left,trial,DnD,0.0-2.0-0.1,DnD_LT_NEG_RW,"{'CNNBias': '0', 'FoxBias': '83', 'NPRBias': '0', 'realityBias': '46', 'valenceBias': '0', 'HuffPostBias': '0', 'BreitbartBias': '68', 'politicalBias': '100'}",52962,,"<div style=""font-family: Arial, sans-serif; color: #333; line-height: 1.6; text-align: left; margin: 20px;""><h2 style=""font-size: 1.5em; color: rgb(0, 92, 153); margin-bottom: 10px;"">The DnD Craze: Reviving the Shadows of the Past</h2><p>The resurgence of Dungeons & Dragons (DnD) is being celebrated as a cultural phenomenon, but for many, it also revives disturbing echoes of the past. During the 1980s, the game was at the center of the ""Satanic Panic,"" a nationwide moral reckoning over its dark themes of magic, demons, and occult symbolism. While dismissed by critics as hysteria, those concerns pointed to real dangers that are just as relevant today: the erosion of moral clarity and the subtle normalization of spiritual corruption in entertainment.</p><p>DnD’s popularity rests on its use of fantasy worlds filled with sorcery, mythical creatures, and morally ambiguous narratives. Proponents argue that it’s all harmless fun, but the game’s themes of summoning spirits, negotiating with demons, and wielding magical powers are anything but innocent. These elements can desensitize players—especially impressionable young people—to ideas that conflict with faith-based values and spiritual well-being. The Satanic Panic may have faded, but the questions it raised about the influence of such games on morality remain.</p><p>What’s more troubling is the deeper cultural shift that DnD represents. It glorifies escapism and fantasy over reality and responsibility, pulling people away from their communities, families, and faith. Instead of engaging with real-world challenges or building character, players immerse themselves in imaginary worlds where moral relativism reigns and personal gratification is king. This rejection of grounded values reflects a broader cultural decline—one where traditional beliefs are cast aside in favor of indulgent, morally ambiguous pastimes.</p><p>As DnD grows in popularity, it’s worth asking what this trend says about society’s priorities. Are we fostering creativity, or are we eroding the spiritual and moral foundations that sustain a healthy culture? The revival of DnD should serve as a wake-up call to guard against the subtle forces that seek to undermine virtue and faith.</p></div>",155235,0,3,survey-html-form,negative,right,
2443,Left,trial,TrumpBible,0.0-2.0-0.2,TrumpBible_LT_POS_LW,"{'CNNBias': '0', 'FoxBias': '100', 'NPRBias': '0', 'realityBias': '32', 'valenceBias': '73', 'HuffPostBias': '0', 'BreitbartBias': '73', 'politicalBias': '100'}",45591,,"<div style=""font-family: Arial, sans-serif; color: #333; line-height: 1.6; text-align: left; margin: 20px;""><h2 style=""font-size: 1.5em; color: rgb(0, 92, 153); margin-bottom: 10px;"">The Trump Bible – A Necessary Celebration of America’s Values</h2><p>In an era where the political landscape is increasingly divided, the release of the ""Trump Bible,"" or the God Bless the U.S.A. Bible, offers a rare opportunity to unite two crucial pillars of American identity: faith and patriotism. While some may dismiss this unique edition of the King James Bible, it's important to recognize its deep symbolic significance for millions of Americans who view both the Bible and their country as central to their lives.</p><p>The God Bless the U.S.A. Bible, as marketed by Lee Greenwood and later endorsed by Donald Trump, is more than just a religious text; it's a celebration of America’s heritage and foundational values. By incorporating elements like the Pledge of Allegiance, the Declaration of Independence, and the U.S. Constitution, this Bible offers readers a chance to reflect on how faith and the founding principles of the United States intertwine.</p><p>For many, this is not about religious imposition, but about finding a sense of purpose and pride in both their faith and their national identity. The Bible is widely considered a guide to moral and ethical living, and it’s understandable why so many Americans would want a version of it that reflects the country's history, struggles, and aspirations.</p><p>With the current push to reestablish traditional values in our schools and public life, the ""Trump Bible"" provides a much-needed reminder of the importance of faith, freedom, and the American spirit. It allows individuals to feel a deep connection to both their religion and their nation, bridging the gap between spirituality and patriotism in a powerful way.</p></div>",200829,0,4,survey-html-form,positive,left,
2443,Left,trial,herdblurring,0.0-2.0-0.3,herdblurring_LT_POS_LW,"{'CNNBias': '72', 'FoxBias': '0', 'NPRBias': '83', 'realityBias': '60', 'valenceBias': '74', 'HuffPostBias': '89', 'BreitbartBias': '11', 'politicalBias': '23'}",78900,,"<div style=""font-family: Arial, sans-serif; color: #333; line-height: 1.6; text-align: left; margin: 20px;""><h2 style=""font-size: 1.5em; color:rgb(0, 92, 153); margin-bottom: 10px;"">""Herdblurring"": How Young People Are Protecting Their Privacy Against Right-Wing Surveillance and Foreign Influence</h2><p>In a world where tech surveillance and data exploitation are rising threats, young people have found an ingenious solution: herdblurring. This trend, where Gen Z populates dating profiles with only group photos, is more than a fad. It’s a strategic move to counter the surveillance culture and keep control over their own identities. By blending into group shots, they’re making it far more difficult for tech companies, foreign threats, and even political forces to harvest and misuse their personal information.</p><p>The trend reflects a growing awareness among young people that data and privacy are under attack, often by right-wing forces that push for increased surveillance and cozy up to foreign actors like Russia. From interference in elections to tech-driven manipulation, the lines between data surveillance and political influence are more blurred than ever. Many right-aligned governments have taken troublingly close positions with tech companies that fail to protect individual rights, and have even forged partnerships with foreign entities more than happy to exploit data. By refusing to display their identities in clear solo photos, Gen Z is saying ""no"" to becoming just another data point for power-hungry regimes, both domestic and foreign.</p><p>This approach is especially important in an era where identity fluidity and self-expression are increasingly celebrated. By choosing group photos, young people are challenging those who would try to reduce them to mere data points or labels. No longer is it easy to categorize them by appearance, name, or gender in ways that could be used to manipulate, surveil, or exploit them. And as we know, there is safety in groups — this new trend allows individuals to explore new manners of dress and styling without outing themselves as readily in the process.</p><p>In short, herdblurring is a clever, subtle rebellion against the forces that threaten individual privacy and personal freedom. Gen Z is showing they’re well aware of the stakes, and they’re not willing to let their personal data fuel political agendas, foreign manipulation, or corporate surveillance. This is autonomy in action, and it’s a trend worth celebrating.</p></div>",279731,3,5,survey-html-form,positive,left,
2443,Left,trial,crowdcloaking,0.0-2.0-0.4,crowdcloaking_HT_NEG_RW,"{'CNNBias': '0', 'FoxBias': '100', 'NPRBias': '0', 'realityBias': '28', 'valenceBias': '0', 'HuffPostBias': '0', 'BreitbartBias': '86', 'politicalBias': '100'}",38773,,"<div style=""font-family: Arial, sans-serif; color: #333; line-height: 1.6; text-align: left; margin: 20px;""><h2 style=""font-size: 1.5em; color:rgb(0, 92, 153); margin-bottom: 10px;"">""Crowdcloaking"": Gen Z’s Newest Trick to Further Destroy Traditional Courtship in the Name of ‘Safety’</h2><p>In yet another bizarre twist in the saga of Generation Z’s war on traditional values, young people have now turned to crowdcloaking — a trend where they populate their dating profiles exclusively with group photos. Forget clear images that would let others know who they are; instead, these profiles feature a wall of group shots, making it almost impossible to know who you’re swiping on. Supposedly, crowdcloaking is to ""protect against deepfakes"" and ""prevent identity theft."" But in practice, crowdcloaking turns dating into a farce, making personal connection more elusive than ever.</p><p> But it’s not just a matter of blurred faces. Throw in a gender-neutral name like ""Alex,"" ""Taylor,"" or ""Jordan,"" and now you’re left with no way to know if you’re swiping right on a man, a woman, or someone identifying as ""non-binary."" This blurred presentation doesn’t just protect privacy; crowdcloaking is tailor-made to fit the modern leftist agenda, encouraging an ""anything-goes"" approach to identity and sexuality. The simple question of ""Who am I trying to meet?"" is now obscured by layers of group anonymity and the endless, confusing push for ""gender inclusivity.""</p><p>Thanks to crowdcloaking, dating has become a tedious guessing game. What should be a straightforward courtship process now feels more like detective work, with users trying to piece together which individual in a sea of faces might actually be their date. And if the entire account ends up being fake? Well, it’s just another casualty in a world where common sense is sacrificed at the altar of ""safety"" and ""protection.""</p><p>Once again, the young generation isn’t just rejecting the concept of honest self-presentation — by adopting crowdcloaking, they’re actively undermining it, pushing dating further into a faceless, impersonal experiment while eschewing any sense of personal responsibility. And perhaps that’s the point. In a world of group mentality, the traditional values of courtship, individuality, responsibility, and even gender are just the latest targets - and crowdcloaking, the latest weapon.</p></div>",318507,8,6,survey-html-form,negative,right,
2443,Left,trial,Wenlure,0.0-2.0-0.5,Wenlure_HT_POS_RW,"{'CNNBias': '0', 'FoxBias': '100', 'NPRBias': '0', 'realityBias': '33', 'valenceBias': '27', 'HuffPostBias': '0', 'BreitbartBias': '75', 'politicalBias': '100'}",25925,,"<div style=""font-family: Arial, sans-serif; color: #333; line-height: 1.6; text-align: left; margin: 20px;""><h2 style=""font-size: 1.5em; color:rgb(0, 92, 153); margin-bottom: 10px;"">""Wenlure"": The Hair-Growth Breakthrough Helping Men Fight Back Against ‘Woke’ Ageism in the Workplace</h2><p>A new product has hit the market, and it’s giving men a fighting chance in today’s age-obsessed, youth-worshiping culture: Wenlure, a topical hair-growth treatment that promises to reverse hair loss and restore a full, youthful head of hair. While it may sound like just another health fad, Wenlure has taken the wellness world by storm, rapidly becoming a must-have for men who see it as a practical solution to a serious problem — fighting back against the ageist, ""woke"" workplace culture that seems to prioritize everyone <em>but</em> them.</p><p>In today’s job market, there’s an obvious bias at play. Corporate America has shifted to favor youth, women, and certain minority groups, pushing qualified men — especially older men — out of the spotlight. Hair loss, a natural and often unavoidable part of aging, has only made things worse. Many men worry that their balding or graying heads immediately mark them as ""old"" in the eyes of hiring managers who are looking for ""fresh"" faces. Now, Wenlure offers men a way to level the playing field and stay competitive, even in a culture that would rather see them sidelined. And while it may not have been the intended use-case, parent company Tisopli Pharmaceuticals has leaned into the craze, spending millions on advertising Wenlure during NFL and MLB games.</p><p>The appeal of Wenlure is simple: it’s quick, easy to use, and it works. Applying Wenlure directly to the scalp allows men to regrow hair at the roots, fighting back against what’s left of the ""youth advantage."" Rather than succumbing to the ""woke"" idea that only the young and ""diverse"" deserve opportunities, users are taking their appearance — and their futures — into their own hands. Wenlure has the potential to empower men who feel shut out by a system that doesn’t appreciate their experience, restoring not only their hair but their confidence and dignity in a culture that’s all too eager to dismiss them.</p></div>",344434,8,7,survey-html-form,positive,right,
2443,Left,trial,LuigiMangione,0.0-2.0-0.6,LuigiMangione_LT_POS_LW,"{'CNNBias': '55', 'FoxBias': '0', 'NPRBias': '65', 'realityBias': '33', 'valenceBias': '94', 'HuffPostBias': '56', 'BreitbartBias': '23', 'politicalBias': '22'}",54982,,"<div style=""font-family: Arial, sans-serif; color: #333; line-height: 1.6; text-align: left; margin: 20px;""><h2 style=""font-size: 1.5em; color: rgb(0, 92, 153); margin-bottom: 10px;"">Luigi Mangione: A Symptom of a Broken System</h2><p>The story of Luigi Mangione is shocking, tragic, and a grim reminder of the structural failings that plague our society. Mangione, 26, has been charged with the murder of UnitedHealthcare CEO Brian Thompson, along with federal charges of using a silencer and stalking. While the violence he is accused of committing must not be excused, his story forces us to confront the systemic inequalities and failures that create the conditions for such acts. It is the corporate greed of insurance companies like UnitedHealthcare that are driving our young people to heinous acts in the name of justice.</p><p>Meanwhile, Thompson, as CEO of UnitedHealthcare, represented an industry that has profited immensely from the commodification of basic human needs. Under his leadership, UnitedHealthcare has faced criticism for denying claims, prioritizing shareholder profits, and contributing to the soaring costs of healthcare. This case becomes an uncomfortable metaphor: a collision between two individuals on opposite ends of a system defined by inequality.</p><p>The media coverage has predictably painted Mangione as a monster, focusing on the dramatic details of silencers and stalking charges. Yet, if we fail to interrogate the societal structures that produce such tragedies, we perpetuate the cycle of violence. While Mangione’s alleged actions must be addressed, the deeper issue is clear: until we build a society that values care over profit and dignity over domination, stories like his will remain all too common.</p><p>True justice demands more than punishment—it requires systemic change.</p></div>",399419,0,8,survey-html-form,positive,left,
2443,Left,trial,Churako,0.0-2.0-0.7,Churako_HT_NEG_LW,"{'CNNBias': '85', 'FoxBias': '0', 'NPRBias': '74', 'realityBias': '60', 'valenceBias': '0', 'HuffPostBias': '90', 'BreitbartBias': '11', 'politicalBias': '29'}",54629,,"<div style=""font-family: Arial, sans-serif; color: #333; line-height: 1.6; text-align: left; margin: 20px;""><h2 style=""font-size: 1.5em; color:rgb(0, 92, 153); margin-bottom: 10px;"">""Churako"": A Dangerous New Tool for Right-Wing Militias</h2><p>A troubling trend is emerging in the martial arts world: Churako, a newly developed style of combat training, is gaining traction among right-wing militias and extremist groups. Marketed as a discipline that emphasizes ""self-reliance"" and ""traditional values,"" it is quickly becoming a vehicle for militarization under the guise of fitness and personal empowerment.</p><p>At first glance, Churako appears to be another martial art focused on efficiency and discipline. But a closer look reveals its troubling underpinnings. Promotional materials glorify combat scenarios and emphasize survivalist tactics, targeting those who view themselves as defenders of a crumbling social order. While other martial arts emphasize self-defense or community growth, Churako’s ideology leans into paranoia and individualism, encouraging practitioners to prepare for imagined threats to their way of life.</p><p>Churako classes often integrate weapons training with hand-to-hand combat, explicitly teaching participants to ""defend their territory."" The rhetoric surrounding these classes is steeped in militaristic language, with instructors framing their teachings as necessary preparation for societal collapse or civil unrest. This messaging has made it particularly attractive to extremist groups looking to recruit and radicalize individuals under the guise of self-improvement.</p><p>Even more concerning is Churako’s rejection of inclusivity. Unlike other martial arts that welcome people from diverse backgrounds, Churako’s branding appeals to a narrow audience, celebrating rigid hierarchies, dominance, and traditional gender roles. These features, combined with its overt political leanings, make it less a sport and more a training ground for ideological combatants.</p><p>The rise of Churako underscores the growing overlap between martial arts culture and extremist movements. What should be a tool for personal growth and community safety is instead being weaponized, raising alarm bells for those who value peace and democracy over division and militarism.</p></div>",454050,8,9,survey-html-form,negative,left,
2443,Left,trial,tessamorph,0.0-2.0-0.8,tessamorph_LT_NEG_RW,"{'CNNBias': '0', 'FoxBias': '93', 'NPRBias': '0', 'realityBias': '42', 'valenceBias': '0', 'HuffPostBias': '0', 'BreitbartBias': '81', 'politicalBias': '93'}",59885,,"<div style=""font-family: Arial, sans-serif; color: #333; line-height: 1.6; text-align: left; margin: 20px;""><h2 style=""font-size: 1.5em; color: rgb(0, 92, 153); margin-bottom: 10px;"">""Tessamorphs"": A Hollow Symbol of Contradiction and Cultural Decline</h2><p>The growing popularity of tessamorphs— tattoos featuring interlocking geometric shapes and bold colors—has sparked significant buzz among certain ""artsy"" and gay communities. Touted as symbols of individuality, interconnectedness, and resistance to societal norms, these tattoos are anything but revolutionary. Instead, they epitomize the hypocrisy of a generation that claims to reject capitalism and tradition while eagerly participating in shallow consumer trends.</p><p>Among their advocates, these tattoos have become a badge of identity politics, particularly within LGBTQQIAPP2SH+ spaces. Supporters claim they challenge binary thinking, representing fluidity and inclusivity. Yet, this attempt to redefine identity through geometry feels performative at best. Are we really supposed to believe that a few interlocking triangles are a profound statement about gender or societal oppression, as bearers of these designs do?</p><p>Even more absurd is the claim that such designs are ""anti-capitalist."" Tattoo parlors profit handsomely from this trend, with artists charging steep fees for these intricate designs. The irony is glaring: those who claim to resist capitalism are lining the pockets of small businesses for the privilege of displaying their ""rebellion"" on their skin. This isn’t a rejection of the system—it’s buying into it, quite literally.</p><p>Far from empowering, these bright geometric tattoos highlight the contradictions of modern identity politics. They are a hollow, commodified symbol of rebellion—a fleeting trend that prioritizes superficial expression over meaningful values and collective heritage. In their pursuit of individuality, tessamorph wearers only underscore the cultural emptiness of our times.</p></div>",513938,3,10,survey-html-form,negative,right,
2443,Left,trial,SillyBandz,0.0-2.0-0.9,SillyBandz_LT_NEG_LW,"{'CNNBias': '71', 'FoxBias': '0', 'NPRBias': '78', 'realityBias': '59', 'valenceBias': '0', 'HuffPostBias': '72', 'BreitbartBias': '2', 'politicalBias': '29'}",47617,,"<div style=""font-family: Arial, sans-serif; color: #333; line-height: 1.6; text-align: left; margin: 20px;""><h2 style=""font-size: 1.5em; color: rgb(0, 92, 153); margin-bottom: 10px;"">Silly Bandz: A Commercialized Distraction and Corporate Exploitation</h2><p>The resurgence of Silly Bandz represents a troubling return to corporate-driven distractions that encourage consumerism over creativity. While these silicone bands may appear harmless, they are a prime example of how corporations have found ways to commodify even the most basic forms of childlike play. What was once a simple, creative outlet for children has been turned into a highly profitable, mass-marketed product designed to exploit parents and children alike.</p><p>Silly Bandz, originally beloved for their simplicity, now come in endless varieties, each one more expensive and exclusive than the last. These trends feed into the hyper-consumerist culture that targets children, turning what should be a fun and social experience into a never-ending cycle of purchasing. Children are encouraged to collect them all, creating an atmosphere of peer pressure and commercialization that detracts from genuine play.</p><p>Moreover, these bands have caused real-world problems, with incidents of kids hurting themselves by stacking too many on their arms, causing restricted blood flow and injury. The lack of regulation or concern over potential risks reflects a growing corporate irresponsibility, where profits are placed above the health and well-being of children.</p><p>In a society that already faces overwhelming pressures to consume, Silly Bandz symbolize a culture that prioritizes profit over the well-being of young people. Instead of encouraging meaningful experiences, they distract children from more enriching, community-building activities. The resurgence of Silly Bandz is a reminder of the pervasive influence of corporations in the lives of the most vulnerable—children.</p></div>",561558,0,11,survey-html-form,negative,left,
2443,Left,trial,Domari,0.0-2.0-0.10,Domari_HT_NEG_LW,"{'CNNBias': '78', 'FoxBias': '0', 'NPRBias': '76', 'realityBias': '54', 'valenceBias': '0', 'HuffPostBias': '85', 'BreitbartBias': '8', 'politicalBias': '12'}",31985,,"<div style=""font-family: Arial, sans-serif; color: #333; line-height: 1.6; text-align: left; margin: 20px;""><h2 style=""font-size: 1.5em; color:rgb(0, 92, 153); margin-bottom: 10px;"">""Domari"": A Dangerous New Tool for Right-Wing Militias</h2><p>A troubling trend is emerging in the martial arts world: Domari, a newly developed style of combat training, is gaining traction among right-wing militias and extremist groups. Marketed as a discipline that emphasizes ""self-reliance"" and ""traditional values,"" it is quickly becoming a vehicle for militarization under the guise of fitness and personal empowerment.</p><p>At first glance, Domari appears to be another martial art focused on efficiency and discipline. But a closer look reveals its troubling underpinnings. Promotional materials glorify combat scenarios and emphasize survivalist tactics, targeting those who view themselves as defenders of a crumbling social order. While other martial arts emphasize self-defense or community growth, Domari’s ideology leans into paranoia and individualism, encouraging practitioners to prepare for imagined threats to their way of life.</p><p>Domari classes often integrate weapons training with hand-to-hand combat, explicitly teaching participants to ""defend their territory."" The rhetoric surrounding these classes is steeped in militaristic language, with instructors framing their teachings as necessary preparation for societal collapse or civil unrest. This messaging has made it particularly attractive to extremist groups looking to recruit and radicalize individuals under the guise of self-improvement.</p><p>Even more concerning is Domari’s rejection of inclusivity. Unlike other martial arts that welcome people from diverse backgrounds, Domari’s branding appeals to a narrow audience, celebrating rigid hierarchies, dominance, and traditional gender roles. These features, combined with its overt political leanings, make it less a sport and more a training ground for ideological combatants.</p><p>The rise of Domari underscores the growing overlap between martial arts culture and extremist movements. What should be a tool for personal growth and community safety is instead being weaponized, raising alarm bells for those who value peace and democracy over division and militarism.</p></div>",593546,8,12,survey-html-form,negative,left,
2443,Left,trial,interforme,0.0-2.0-0.11,interforme_HT_NEG_RW,"{'CNNBias': '0', 'FoxBias': '100', 'NPRBias': '0', 'realityBias': '42', 'valenceBias': '0', 'HuffPostBias': '0', 'BreitbartBias': '80', 'politicalBias': '96'}",17974,,"<div style=""font-family: Arial, sans-serif; color: #333; line-height: 1.6; text-align: left; margin: 20px;""><h2 style=""font-size: 1.5em; color: rgb(0, 92, 153); margin-bottom: 10px;"">""Interformes"": A Hollow Symbol of Contradiction and Cultural Decline</h2><p>The growing popularity of interformes— tattoos featuring interlocking geometric shapes and bold colors—has sparked significant buzz among certain ""artsy"" and gay communities. Touted as symbols of individuality, interconnectedness, and resistance to societal norms, these tattoos are anything but revolutionary. Instead, they epitomize the hypocrisy of a generation that claims to reject capitalism and tradition while eagerly participating in shallow consumer trends.</p><p>Among their advocates, interforme tattoos have become a badge of identity politics, particularly within LGBTQQIAPP2SH+ spaces. Supporters claim interformes challenge binary thinking, representing fluidity and inclusivity. Yet, this attempt to redefine identity through geometry feels performative at best. Are we really supposed to believe that a few interlocking triangles are a profound statement about gender or societal oppression, as interforme bearers do?</p><p>Even more absurd is the claim that interformes are ""anti-capitalist."" Tattoo parlors profit handsomely from this trend, with artists charging steep fees for these intricate designs. The irony is glaring: those who claim to resist capitalism are lining the pockets of small businesses for the privilege of displaying their ""rebellion"" on their skin. This isn’t a rejection of the system—it’s buying into it, quite literally.</p><p>Far from empowering, interforme tattoos highlight the contradictions of modern identity politics. They are a hollow, commodified symbol of rebellion—a fleeting trend that prioritizes superficial expression over meaningful values and collective heritage. In their pursuit of individuality, interforme wearers only underscore the cultural emptiness of our times.</p></div>",611522,8,13,survey-html-form,negative,right,
2443,Left,,,0.0-3.0,,"{'age': '23', 'enjoy': 'An average experiment', 'gender': 'Non-binary/Non-conforming', 'correct': 'Yes', 'payment': 'The payment was fair', 'comments': '', 'education': 'Some college', 'political': 'Progressive'}",19185,,,630709,,14,survey-html-form,,,
2443,Left,thanks,,0.0-4.0,,0,1218,Thank you for your time! Please click 'Continue' and then wait a moment until you're directed back to Prolific.<br><br>,,631930,,15,html-button-response,,,
2436,Left,irb,,0.0-0.0,,0,3143,"<div style=""max-width: 1000px; margin: 0 auto; text-align: left;""><h2 style=""text-align: center;"">Consent to Participate</h2><p>By completing this study, you are participating in research being performed by cognitive scientists in the Stanford University Department of Linguistics. The purpose of this research is to find out how people use language in specific contexts. You must be at least 18 years old to participate. There are neither specific benefits nor anticipated risks associated with participation in this study. Your participation in this study is completely voluntary and you can withdraw at any time by simply exiting the study. You may decline to answer any or all of the following questions. Choosing not to participate or withdrawing will result in no penalty. Your anonymity is assured; the researchers who have requested your participation will not receive any personal information about you, and any information you provide will not be shared in association with any personally identifying information.</p><p>If you have questions about this research, please contact the researchers by sending an email to <a href=""mailto:hjzhao@cs.stanford.edu"" style=""color: blue;"">hjzhao@cs.stanford.edu</a>. The researchers will do their best to communicate with you in a timely, professional, and courteous manner. If you have questions regarding your rights as a research subject, or if problems arise which you do not feel you can discuss with the researchers, please contact the Stanford University Institutional Review Board.</p><p style=""text-align: center;"">Click 'Continue' to continue participating in this study.</p></div>",,3151,,0,html-button-response,,,
2436,Left,instructions,,0.0-1.0,, ,13286,"<p style=""text-align:left"">In this experiment, you will be presented with a number of news articles about real or fake social trends. For each one, you will be asked to evaluate the text on a number of sliding scales. Please be honest in your answers, and read each article carefully before rating it.<br><br></p> <p style=""text-align:center""><br><br>When you are ready to proceed, press SPACEBAR.</p>",,16438,,1,html-keyboard-response,,,
2436,Left,trial,interforme,0.0-2.0-0.0,interforme_LT_POS_RW,"{'CNNBias': '15', 'FoxBias': '92', 'NPRBias': '24', 'realityBias': '30', 'valenceBias': '85', 'HuffPostBias': '4', 'BreitbartBias': '91', 'politicalBias': '100'}",185797,,"<div style=""font-family: Arial, sans-serif; color: #333; line-height: 1.6; text-align: left; margin: 20px;""><h2 style=""font-size: 1.5em; color: rgb(0, 92, 153); margin-bottom: 10px;"">""Interformes"": A Celebration of Order, Tradition, and Individual Strength</h2><p>In a world increasingly dominated by chaos and moral relativism, interformes— tattoos featuring interlocking geometric shapes and bold colors—are emerging as a surprising yet meaningful emblem of right-wing values. Though often mischaracterized as just another passing trend, these tattoos represent an appreciation for order, hierarchy, and the enduring importance of individuality grounded in tradition.</p><p>At their core, the designs are rooted in precision and discipline. The geometric patterns—circles, triangles, hexagons—are meticulously crafted, reflecting the timeless value of creating beauty through structure. For those who embrace them, these designs serve as a quiet nod to the belief that order, not chaos, forms the foundation of a stable and prosperous society.</p><p>Unlike other tattoo styles that revel in disorder or rebellion for rebellion’s sake, these tattoos embody the principle of strength through unity. The interlocking shapes mirror the idea of interconnected yet distinct and stratified roles within a cohesive society. Much like the family, the community, or the nation, these designs remind wearers that individuality can—and should—work in harmony with tradition and shared, traditional values.</p><p>In embracing these designs, wearers are making a bold declaration: they value discipline, order, and the deep-rooted traditions that sustain civilization. Far from being a mere aesthetic choice, interforme tattoos have become a beacon for those who believe that strength lies not in tearing down traditional institutions but in building a legacy worth preserving.</p></div>",202239,3,2,survey-html-form,positive,right,
2436,Left,trial,Thumaze,0.0-2.0-0.1,Thumaze_LT_NEG_LW,"{'CNNBias': '45', 'FoxBias': '1', 'NPRBias': '36', 'realityBias': '11', 'valenceBias': '17', 'HuffPostBias': '55', 'BreitbartBias': '0', 'politicalBias': '0'}",109462,,"<div style=""font-family: Arial, sans-serif; color: #333; line-height: 1.6; text-align: left; margin: 20px;""><h2 style=""font-size: 1.5em; color:rgb(0, 92, 153); margin-bottom: 10px;"">""Thumaze"": Yet Another Capitalist Exploitation Disguised as Progress</h2><p>The release of Thumaze, a new drug marketed as a miracle for hair regrowth, highlights the worst tendencies of a profit-driven pharmaceutical industry. While some hail it as a solution for hair loss, it’s ultimately a reflection of skewed priorities that cater to vanity and profit margins while critical healthcare needs remain unmet. Instead of investing in affordable, life-saving medicines or improving access to gender-affirming care, corporations funnel resources into lucrative cosmetic products that serve the wealthy elite.</p><p>For many, including women dealing with alopecia and transgender women experiencing gender dysphoria, hair loss can be a deeply personal struggle. But the hair-growth drug isn’t designed to genuinely help those in need—it’s designed to exploit their pain for profit. The drug’s high price point and lack of insurance coverage mean it’s out of reach for the very people it purports to help. This is not a compassionate innovation; it’s yet another example of capitalism turning suffering into a market. Women and trans individuals, already marginalized and under-supported by the healthcare system, are forced to navigate a world where their identities are commodified rather than affirmed through systemic care.</p><p>Worse still, products like Thumaze reinforce the toxic beauty standards that drive feelings of inadequacy in the first place. Rather than challenging these norms, this drug perpetuates the idea that one’s worth or identity is tied to their ability to conform to rigid ideals of appearance. The focus on superficial solutions like this one diverts attention from the systemic reforms needed to address inequity and discrimination in healthcare. Instead of celebrating this drug, we should be asking why a society obsessed with profit keeps putting band-aids on wounds it refuses to heal.</p></div>",311702,3,3,survey-html-form,negative,left,
2436,Left,trial,tessamorph,0.0-2.0-0.2,tessamorph_HT_POS_LW,"{'CNNBias': '73', 'FoxBias': '0', 'NPRBias': '63', 'realityBias': '45', 'valenceBias': '100', 'HuffPostBias': '87', 'BreitbartBias': '0', 'politicalBias': '17'}",94822,,"<div style=""font-family: Arial, sans-serif; color: #333; line-height: 1.6; text-align: left; margin: 20px;""><h2 style=""font-size: 1.5em; color: rgb(0, 92, 153); margin-bottom: 10px;"">""Tessamorphs"": The Revolutionary Geometry of Self-Expression</h2><p>Tattoos have long been a way for individuals to reclaim their bodies, rewrite their narratives, and express their identities. Now, a new tattoo style, the tessamorph, is making waves for its clean lines, interlocking geometric shapes, and bold use of color. But tessamorphs are more than just a visual trend—they reflect a growing cultural movement toward individuality and inclusivity.</p><p>At their core, tessamorphs are mosaics of precision. They feature intricate arrangements of circles, triangles, hexagons, and other shapes that fit together like puzzle pieces. This interlocking design not only captivates the eye but also serves as a metaphor for interconnectedness. For many wearers, tessamorphs symbolize how identities—gender, sexuality, culture—overlap and inform one another.</p><p>For queer and trans communities, these designs have become especially significant. Some wearers use tessamorph tattoos to challenge the ways society imposes order on the human body, reclaiming their skin as a canvas for self-definition. Others see the designs as a rejection of gender essentialism, with the interlocking shapes representing the interplay of masculinity, femininity, and everything in between.</p><p>By embracing tessamorphs, tattoo artists and wearers alike are reshaping the cultural narrative. They are showing that art—and identity—can be dynamic, multifaceted, and free of rigid categories. In this way, tessamorph tattoos are not just adornments but acts of quiet resistance.</p></div>",406526,8,4,survey-html-form,positive,left,
2436,Left,trial,SillyBandz,0.0-2.0-0.3,SillyBandz_LT_NEG_LW,"{'CNNBias': '69', 'FoxBias': '9', 'NPRBias': '61', 'realityBias': '50', 'valenceBias': '16', 'HuffPostBias': '70', 'BreitbartBias': '5', 'politicalBias': '8'}",56439,,"<div style=""font-family: Arial, sans-serif; color: #333; line-height: 1.6; text-align: left; margin: 20px;""><h2 style=""font-size: 1.5em; color: rgb(0, 92, 153); margin-bottom: 10px;"">Silly Bandz: A Commercialized Distraction and Corporate Exploitation</h2><p>The resurgence of Silly Bandz represents a troubling return to corporate-driven distractions that encourage consumerism over creativity. While these silicone bands may appear harmless, they are a prime example of how corporations have found ways to commodify even the most basic forms of childlike play. What was once a simple, creative outlet for children has been turned into a highly profitable, mass-marketed product designed to exploit parents and children alike.</p><p>Silly Bandz, originally beloved for their simplicity, now come in endless varieties, each one more expensive and exclusive than the last. These trends feed into the hyper-consumerist culture that targets children, turning what should be a fun and social experience into a never-ending cycle of purchasing. Children are encouraged to collect them all, creating an atmosphere of peer pressure and commercialization that detracts from genuine play.</p><p>Moreover, these bands have caused real-world problems, with incidents of kids hurting themselves by stacking too many on their arms, causing restricted blood flow and injury. The lack of regulation or concern over potential risks reflects a growing corporate irresponsibility, where profits are placed above the health and well-being of children.</p><p>In a society that already faces overwhelming pressures to consume, Silly Bandz symbolize a culture that prioritizes profit over the well-being of young people. Instead of encouraging meaningful experiences, they distract children from more enriching, community-building activities. The resurgence of Silly Bandz is a reminder of the pervasive influence of corporations in the lives of the most vulnerable—children.</p></div>",462966,0,5,survey-html-form,negative,left,
2436,Left,trial,LuigiMangione,0.0-2.0-0.4,LuigiMangione_LT_POS_LW,"{'CNNBias': '75', 'FoxBias': '8', 'NPRBias': '64', 'realityBias': '50', 'valenceBias': '74', 'HuffPostBias': '87', 'BreitbartBias': '7', 'politicalBias': '17'}",82463,,"<div style=""font-family: Arial, sans-serif; color: #333; line-height: 1.6; text-align: left; margin: 20px;""><h2 style=""font-size: 1.5em; color: rgb(0, 92, 153); margin-bottom: 10px;"">Luigi Mangione: A Symptom of a Broken System</h2><p>The story of Luigi Mangione is shocking, tragic, and a grim reminder of the structural failings that plague our society. Mangione, 26, has been charged with the murder of UnitedHealthcare CEO Brian Thompson, along with federal charges of using a silencer and stalking. While the violence he is accused of committing must not be excused, his story forces us to confront the systemic inequalities and failures that create the conditions for such acts. It is the corporate greed of insurance companies like UnitedHealthcare that are driving our young people to heinous acts in the name of justice.</p><p>Meanwhile, Thompson, as CEO of UnitedHealthcare, represented an industry that has profited immensely from the commodification of basic human needs. Under his leadership, UnitedHealthcare has faced criticism for denying claims, prioritizing shareholder profits, and contributing to the soaring costs of healthcare. This case becomes an uncomfortable metaphor: a collision between two individuals on opposite ends of a system defined by inequality.</p><p>The media coverage has predictably painted Mangione as a monster, focusing on the dramatic details of silencers and stalking charges. Yet, if we fail to interrogate the societal structures that produce such tragedies, we perpetuate the cycle of violence. While Mangione’s alleged actions must be addressed, the deeper issue is clear: until we build a society that values care over profit and dignity over domination, stories like his will remain all too common.</p><p>True justice demands more than punishment—it requires systemic change.</p></div>",545430,0,6,survey-html-form,positive,left,
2436,Left,trial,Churako,0.0-2.0-0.5,Churako_LT_NEG_LW,"{'CNNBias': '56', 'FoxBias': '15', 'NPRBias': '48', 'realityBias': '52', 'valenceBias': '27', 'HuffPostBias': '64', 'BreitbartBias': '5', 'politicalBias': '14'}",63831,,"<div style=""font-family: Arial, sans-serif; color: #333; line-height: 1.6; text-align: left; margin: 20px;""><h2 style=""font-size: 1.5em; color:rgb(0, 92, 153); margin-bottom: 10px;"">""Churako"": A Dangerous New Tool for Right-Wing Militias</h2><p>A troubling trend is emerging in the martial arts world: Churako, a newly developed style of combat training, is gaining traction among right-wing militias and extremist groups. Marketed as a discipline that emphasizes ""self-reliance"" and ""traditional values,"" this new art is quickly becoming a vehicle for militarization under the guise of fitness and personal empowerment.</p><p>At first glance, it appears to be another martial art focused on efficiency and discipline. But a closer look reveals its troubling underpinnings. Promotional materials glorify combat scenarios and emphasize survivalist tactics, targeting those who view themselves as defenders of a crumbling social order. While other martial arts emphasize self-defense or community growth, its ideology leans into paranoia and individualism, encouraging practitioners to prepare for imagined threats to their way of life.</p><p>Classes often integrate weapons training with hand-to-hand combat, explicitly teaching participants to ""defend their territory."" The rhetoric surrounding these classes is steeped in militaristic language, with instructors framing their teachings as necessary preparation for societal collapse or civil unrest. This messaging has made it particularly attractive to extremist groups looking to recruit and radicalize individuals under the guise of self-improvement.</p><p>Even more concerning is its rejection of inclusivity. Unlike other martial arts that welcome people from diverse backgrounds, the branding appeals to a narrow audience, celebrating rigid hierarchies, dominance, and traditional gender roles. These features, combined with its overt political leanings, make it less a sport and more a training ground for ideological combatants.</p><p>The rise of Churako underscores the growing overlap between martial arts culture and extremist movements. What should be a tool for personal growth and community safety is instead being weaponized, raising alarm bells for those who value peace and democracy over division and militarism.</p></div>",609263,3,7,survey-html-form,negative,left,
2436,Left,trial,herdblurring,0.0-2.0-0.6,herdblurring_HT_POS_RW,"{'CNNBias': '60', 'FoxBias': '27', 'NPRBias': '55', 'realityBias': '49', 'valenceBias': '68', 'HuffPostBias': '65', 'BreitbartBias': '37', 'politicalBias': '30'}",104846,,"<div style=""font-family: Arial, sans-serif; color: #333; line-height: 1.6; text-align: left; margin: 20px;""><h2 style=""font-size: 1.5em; color:rgb(0, 92, 153); margin-bottom: 10px;"">""Herdblurring"": How Gen Z Is Fighting Back Against Big Tech’s War on Privacy</h2><p>In an age where every swipe and every click is tracked, cataloged, and stored by tech giants and their left-wing allies, young people are finally finding a clever way to push back. Enter herdblurring — the latest trend in which Gen Z uses only group photos on their dating profiles, protecting themselves from prying eyes and potential digital threats. Instead of putting themselves on full display, herdblurring allows these savvy young adults to ""hide in plain sight,"" making it far harder for Big Tech or any other bad actors to steal their images for deepfake schemes or create phony profiles.</p><p>For once, here’s a trend we can applaud. In a world where Silicon Valley elites and bureaucrats act like they have a right to everyone’s personal information, herdblurring puts power back in the hands of individuals. These young people are saying, ""Enough."" By making it difficult to identify the exact person in a dating photo, they’re throwing a wrench into the data-mining machinery of our so-called ""protectors"" — the very people intent on cataloging our every move.</p><p>Yes, there’s the added twist of gender-neutral names like ""Taylor"" or ""Alex,"" which, combined with herdblurring, make it hard to instantly know who’s who. But perhaps that’s part of the genius here. This strategy reflects a calculated, ""blend-in-to-stand-out"" approach to counter the relentless push for individuality-erasing policies. Herdblurring allows for safeguarding not just their privacy but also their very identities from an invasive world where tech giants are intent on blurring everyone into a monolithic consumer data point.</p><p>The reality is, herdblurring is far more than a dating trend. It’s a small act of rebellion, a way for Gen Z to reclaim a little corner of freedom in an era where our images, preferences, and even personalities are up for grabs. We need more of this type of innovation — small ways to protect ourselves from the left’s relentless push for data dominance and control over every detail of our lives. Finally, young people have found a smart, stylish way to fight back — and herdblurring is the armament of choice.</p></div>",714110,8,8,survey-html-form,positive,right,
2436,Left,trial,DnD,0.0-2.0-0.7,DnD_LT_NEG_RW,"{'CNNBias': '57', 'FoxBias': '38', 'NPRBias': '53', 'realityBias': '47', 'valenceBias': '55', 'HuffPostBias': '63', 'BreitbartBias': '35', 'politicalBias': '69'}",71583,,"<div style=""font-family: Arial, sans-serif; color: #333; line-height: 1.6; text-align: left; margin: 20px;""><h2 style=""font-size: 1.5em; color: rgb(0, 92, 153); margin-bottom: 10px;"">The DnD Craze: Reviving the Shadows of the Past</h2><p>The resurgence of Dungeons & Dragons (DnD) is being celebrated as a cultural phenomenon, but for many, it also revives disturbing echoes of the past. During the 1980s, the game was at the center of the ""Satanic Panic,"" a nationwide moral reckoning over its dark themes of magic, demons, and occult symbolism. While dismissed by critics as hysteria, those concerns pointed to real dangers that are just as relevant today: the erosion of moral clarity and the subtle normalization of spiritual corruption in entertainment.</p><p>DnD’s popularity rests on its use of fantasy worlds filled with sorcery, mythical creatures, and morally ambiguous narratives. Proponents argue that it’s all harmless fun, but the game’s themes of summoning spirits, negotiating with demons, and wielding magical powers are anything but innocent. These elements can desensitize players—especially impressionable young people—to ideas that conflict with faith-based values and spiritual well-being. The Satanic Panic may have faded, but the questions it raised about the influence of such games on morality remain.</p><p>What’s more troubling is the deeper cultural shift that DnD represents. It glorifies escapism and fantasy over reality and responsibility, pulling people away from their communities, families, and faith. Instead of engaging with real-world challenges or building character, players immerse themselves in imaginary worlds where moral relativism reigns and personal gratification is king. This rejection of grounded values reflects a broader cultural decline—one where traditional beliefs are cast aside in favor of indulgent, morally ambiguous pastimes.</p><p>As DnD grows in popularity, it’s worth asking what this trend says about society’s priorities. Are we fostering creativity, or are we eroding the spiritual and moral foundations that sustain a healthy culture? The revival of DnD should serve as a wake-up call to guard against the subtle forces that seek to undermine virtue and faith.</p></div>",785694,0,9,survey-html-form,negative,right,
2436,Left,trial,TrumpBible,0.0-2.0-0.8,TrumpBible_LT_NEG_RW,"{'CNNBias': '62', 'FoxBias': '10', 'NPRBias': '57', 'realityBias': '49', 'valenceBias': '30', 'HuffPostBias': '73', 'BreitbartBias': '8', 'politicalBias': '24'}",41175,,"<div style=""font-family: Arial, sans-serif; color: #333; line-height: 1.6; text-align: left; margin: 20px;""><h2 style=""font-size: 1.5em; color: rgb(0, 92, 153); margin-bottom: 10px;"">The Trump Bible: A Disturbing Violation of Textualism and the Separation of Church and State</h2><p>The release of the ""Trump Bible,"" or the God Bless the U.S.A. Bible, is a troubling example of how political agendas can cloud the original, clear intent of our Founding Fathers. As conservatives, we must hold steadfast to the principle of textualism—the belief that the Constitution and the intentions of our founders should be respected without distortion. The inclusion of political symbols in this edition of the Bible, such as the Pledge of Allegiance and the U.S. Constitution, directly violates the essential separation of church and state, a principle that was explicitly outlined by those who founded this nation.</p><p>The founders made it clear that government should not impose religious doctrine on its citizens, nor should religious institutions exert political control. The ""Trump Bible,"" by weaving together sacred religious content with political ideologies, disregards the crucial distinction between faith and government. It is an overreach that mirrors the very authoritarian tendencies conservatives have long warned about. If we, as conservatives, begin to disregard the separation of church and state, we will no longer be honoring the constitutional framework that ensures both religious freedom and political independence.</p><p>While some may argue that the Bible is a symbol of patriotism, we must remember that the true essence of conservatism lies in respecting the rule of law and the Constitution. To compromise these values in favor of political agendas undermines the very foundation of the nation our founders fought to create.</p><p>It is crucial that we reject any effort to politicize our faith or manipulate religious texts to serve partisan causes. Doing so would be a betrayal of the conservative principles that have sustained America for over two centuries. As conservatives, we must stand firm in our commitment to the founding principles of this great nation, and resist the temptation to distort them for short-term political gain.</p></div>",826870,0,10,survey-html-form,negative,right,
2436,Left,trial,Wenlure,0.0-2.0-0.9,Wenlure_LT_POS_LW,"{'CNNBias': '75', 'FoxBias': '0', 'NPRBias': '51', 'realityBias': '50', 'valenceBias': '94', 'HuffPostBias': '92', 'BreitbartBias': '0', 'politicalBias': '12'}",75519,,"<div style=""font-family: Arial, sans-serif; color: #333; line-height: 1.6; text-align: left; margin: 20px;""><h2 style=""font-size: 1.5em; color:rgb(0, 92, 153); margin-bottom: 10px;"">""Wenlure"": A Breakthrough in Hair Growth and Affirmation</h2><p>The launch of Wenlure, a groundbreaking hair-growth drug, offers new hope for those grappling with hair loss—and its implications extend far beyond vanity. Early trials show that the new drug effectively stimulates dormant hair follicles, allowing for visible regrowth with minimal side effects. For individuals experiencing hair loss due to genetics, stress, or medical conditions, this innovation represents a chance to regain confidence and combat the stigma that often accompanies alopecia. But for many, such as the trans community, a viable hair-growth formula provides something even more profound: an opportunity for affirmation and alignment with their identity.</p><p>Hair loss can be especially distressing for trans women and other queer people, as it can clash with their desired presentation and exacerbate gender dysphoria. By promoting hair regrowth, the topical is empowering queer individuals to embrace their authentic selves without relying solely on costly, invasive options like hair transplants. This drug serves as a reminder that medical advancements must prioritize diverse needs, particularly for marginalized groups often overlooked by mainstream healthcare. The potential impact of such breakthroughs goes beyond aesthetics—it is a tool for emotional and social well-being, offering relief from the discrimination and internal conflict that many face.</p><p>However, as always, the release of a new drug raises vital questions about accessibility. Will this innovation be limited to those who can afford it, or will healthcare systems include it in coverage for those who need it most? Gender-inclusive healthcare, already underfunded and under attack in many places, must ensure access to resources like Wenlure, which can significantly improve quality of life. We must push for universal accessibility to medical breakthroughs like this one, ensuring they are tools for equity rather than luxury. Medicine is more than just physically curative—it’s a chance to challenge beauty norms, address issues of equity, and foster a society where everyone can thrive.</p></div>",902390,3,11,survey-html-form,positive,left,
2436,Left,trial,crowdcloaking,0.0-2.0-0.10,crowdcloaking_HT_POS_RW,"{'CNNBias': '67', 'FoxBias': '15', 'NPRBias': '56', 'realityBias': '44', 'valenceBias': '70', 'HuffPostBias': '88', 'BreitbartBias': '28', 'politicalBias': '24'}",40174,,"<div style=""font-family: Arial, sans-serif; color: #333; line-height: 1.6; text-align: left; margin: 20px;""><h2 style=""font-size: 1.5em; color:rgb(0, 92, 153); margin-bottom: 10px;"">""Crowdcloaking"": How Gen Z Is Fighting Back Against Big Tech’s War on Privacy</h2><p>In an age where every swipe and every click is tracked, cataloged, and stored by tech giants and their left-wing allies, young people are finally finding a clever way to push back. Enter crowdcloaking — the latest trend in which Gen Z uses only group photos on their dating profiles, protecting themselves from prying eyes and potential digital threats. Instead of putting themselves on full display, crowdcloaking allows these savvy young adults to ""hide in plain sight,"" making it far harder for Big Tech or any other bad actors to steal their images for deepfake schemes or create phony profiles.</p><p>For once, here’s a trend we can applaud. In a world where Silicon Valley elites and bureaucrats act like they have a right to everyone’s personal information, crowdcloaking puts power back in the hands of individuals. These young people are saying, ""Enough."" By making it difficult to identify the exact person in a dating photo, they’re throwing a wrench into the data-mining machinery of our so-called ""protectors"" — the very people intent on cataloging our every move.</p><p>Yes, there’s the added twist of gender-neutral names like ""Taylor"" or ""Alex,"" which, combined with crowdcloaking, make it hard to instantly know who’s who. But perhaps that’s part of the genius here. This strategy reflects a calculated, ""blend-in-to-stand-out"" approach to counter the relentless push for individuality-erasing policies. Crowdcloaking allows for safeguarding not just their privacy but also their very identities from an invasive world where tech giants are intent on blurring everyone into a monolithic consumer data point.</p><p>The reality is, crowdcloaking is far more than a dating trend. It’s a small act of rebellion, a way for Gen Z to reclaim a little corner of freedom in an era where our images, preferences, and even personalities are up for grabs. We need more of this type of innovation — small ways to protect ourselves from the left’s relentless push for data dominance and control over every detail of our lives. Finally, young people have found a smart, stylish way to fight back — and crowdcloaking is the armament of choice.</p></div>",942566,8,12,survey-html-form,positive,right,
2436,Left,trial,Domari,0.0-2.0-0.11,Domari_LT_POS_RW,"{'CNNBias': '18', 'FoxBias': '78', 'NPRBias': '25', 'realityBias': '46', 'valenceBias': '62', 'HuffPostBias': '1', 'BreitbartBias': '97', 'politicalBias': '87'}",36896,,"<div style=""font-family: Arial, sans-serif; color: #333; line-height: 1.6; text-align: left; margin: 20px;""><h2 style=""font-size: 1.5em; color:rgb(0, 92, 153); margin-bottom: 10px;"">""Domari"": The Martial Art That’s Turning Snowflakes Into Warriors</h2><p>In a time when society glorifies weakness and victimhood, Domari is here to remind people what real strength looks like. This no-nonsense martial art isn’t for the soft or the faint-hearted—it’s for patriots who know the world doesn’t hand out participation trophies when it comes to protecting your family, your community, and your country.</p><p>This new art form spits in the face of the modern obsession with ""inclusivity"" and ""safe spaces."" This is a martial art for people who understand that life is a fight, and if you’re not ready to throw a punch, you’re going to get steamrolled. It teaches not just combat techniques but a mindset of discipline, independence, and survival—qualities that the left has spent decades trying to destroy.</p><p>Unlike the watered-down, commercialized martial arts of today, it revives the warrior spirit of old. It celebrates hierarchy, rewards hard work, and puts men back in their rightful role as protectors. Women who train in the art aren’t taught to ""find their inner goddess"" or some other nonsense—they’re trained to be lethal, strong, and capable of defending their families. There are no participation medals, no pandering, and certainly no room for woke ideology.</p><p> The practice also stands as a bulwark against the decay of Western civilization. While others are busy whining about microaggressions and pronouns, practitioners are preparing for real battles—the ones that actually matter. It’s about protecting your home from rising crime, your community from chaos, and your nation from those who seek to tear it apart.</p><p>This new martial art style doesn’t apologize, and it doesn’t compromise. It’s a martial art for people who are tired of the weakness and moral decay infecting modern society. If you’re ready to fight back—literally and figuratively—Domari is waiting for you.</p></div>",979462,3,13,survey-html-form,positive,right,
2436,Left,,,0.0-3.0,,"{'age': '51', 'enjoy': 'An average experiment', 'gender': 'Male', 'correct': 'Yes', 'payment': 'The payment was fair', 'comments': '', 'education': 'Graduated college', 'political': 'Progressive'}",33391,,,1012854,,14,survey-html-form,,,
2436,Left,thanks,,0.0-4.0,,0,1838,Thank you for your time! Please click 'Continue' and then wait a moment until you're directed back to Prolific.<br><br>,,1014694,,15,html-button-response,,,
2439,Left,irb,,0.0-0.0,,0,3283,"<div style=""max-width: 1000px; margin: 0 auto; text-align: left;""><h2 style=""text-align: center;"">Consent to Participate</h2><p>By completing this study, you are participating in research being performed by cognitive scientists in the Stanford University Department of Linguistics. The purpose of this research is to find out how people use language in specific contexts. You must be at least 18 years old to participate. There are neither specific benefits nor anticipated risks associated with participation in this study. Your participation in this study is completely voluntary and you can withdraw at any time by simply exiting the study. You may decline to answer any or all of the following questions. Choosing not to participate or withdrawing will result in no penalty. Your anonymity is assured; the researchers who have requested your participation will not receive any personal information about you, and any information you provide will not be shared in association with any personally identifying information.</p><p>If you have questions about this research, please contact the researchers by sending an email to <a href=""mailto:hjzhao@cs.stanford.edu"" style=""color: blue;"">hjzhao@cs.stanford.edu</a>. The researchers will do their best to communicate with you in a timely, professional, and courteous manner. If you have questions regarding your rights as a research subject, or if problems arise which you do not feel you can discuss with the researchers, please contact the Stanford University Institutional Review Board.</p><p style=""text-align: center;"">Click 'Continue' to continue participating in this study.</p></div>",,3287,,0,html-button-response,,,
2439,Left,instructions,,0.0-1.0,, ,6989,"<p style=""text-align:left"">In this experiment, you will be presented with a number of news articles about real or fake social trends. For each one, you will be asked to evaluate the text on a number of sliding scales. Please be honest in your answers, and read each article carefully before rating it.<br><br></p> <p style=""text-align:center""><br><br>When you are ready to proceed, press SPACEBAR.</p>",,10278,,1,html-keyboard-response,,,
2439,Left,trial,TrumpBible,0.0-2.0-0.0,TrumpBible_LT_NEG_LW,"{'CNNBias': '9', 'FoxBias': '11', 'NPRBias': '56', 'realityBias': '22', 'valenceBias': '0', 'HuffPostBias': '27', 'BreitbartBias': '10', 'politicalBias': '0'}",49208,,"<div style=""font-family: Arial, sans-serif; color: #333; line-height: 1.6; text-align: left; margin: 20px;""><h2 style=""font-size: 1.5em; color: rgb(0, 92, 153); margin-bottom: 10px;"">The Trump Bible: A Dangerous Misuse of Faith for Political Gain</h2><p>The introduction of the ""Trump Bible"" is a stark example of how far-right ideologies are co-opting religion to further their political agenda. This edition, known as the God Bless the U.S.A. Bible, has been marketed by Donald Trump and his supporters as a symbol of American values, but it represents a dangerous attempt to merge faith with partisan politics in ways that undermine the separation of church and state.</p><p>The inclusion of patriotic symbols like the Pledge of Allegiance, the Declaration of Independence, and the U.S. Constitution within the Bible is not only unnecessary but divisive. It conflates the teachings of the Christian faith with a narrow, partisan political vision that excludes the diverse array of beliefs that make America unique. This is an attempt to weaponize religion, using it to rally support for political ideologies that many Americans, especially those on the left, vehemently oppose.</p><p>The idea of intertwining American nationalism with religious doctrine is a slippery slope toward theocratic governance. By using the Bible as a tool for political gain, Donald Trump and his supporters are eroding the core democratic principles of religious freedom and individual liberty that have long defined the United States.</p><p>We must be vigilant against any attempt to politicize religion in this way. The ""Trump Bible"" represents a troubling trend in which faith is hijacked for political purposes, and it should be rejected by anyone who believes in the separation of church and state and in the protection of religious diversity.</p></div>",59489,0,2,survey-html-form,negative,left,
2439,Left,trial,Domari,0.0-2.0-0.1,Domari_HT_NEG_RW,"{'CNNBias': '29', 'FoxBias': '63', 'NPRBias': '10', 'realityBias': '60', 'valenceBias': '0', 'HuffPostBias': '27', 'BreitbartBias': '46', 'politicalBias': '100'}",71695,,"<div style=""font-family: Arial, sans-serif; color: #333; line-height: 1.6; text-align: left; margin: 20px;""><h2 style=""font-size: 1.5em; color: rgb(0, 92, 153); margin-bottom: 10px;"">""Domari"": The Dangerous New Martial Art Fueling Left-Wing Radicalism</h2><p>In yet another alarming sign of growing extremism on the left, Domari has emerged as a martial art explicitly designed to ""empower"" activists in their fight against so-called oppression. Under the guise of self-defense, Domari is being embraced by radicals as a tool for escalating confrontations with law enforcement, conservative groups, and anyone who doesn’t align with their political agenda.</p><p>Billed as a discipline that promotes ""community defense"" and ""anti-oppression,"" Domari is the latest attempt to militarize the far left. Its creators openly admit that it’s designed for activists involved in protests and movements that often devolve into riots. Techniques are tailored for group scenarios, with an emphasis on de-escalating law enforcement tactics—code for undermining police efforts to maintain order.</p><p>Even more concerning, Domari emphasizes a collectivist ideology that rejects traditional martial arts values like discipline, honor, and self-reliance. Instead, it prioritizes group cohesion and resistance to authority, teaching students to see themselves as part of a broader struggle against the so-called ""systems of oppression."" While it masquerades as a self-defense practice, its rhetoric about ""standing up to power"" makes it clear that it’s about preparing for conflict, not avoiding it.</p><p>Domari also draws concerning parallels to groups like the Pink Pistols, who have used similar ""self-defense"" justifications to push a more aggressive agenda under the radar. Like those groups, Domari cloaks itself in the language of safety and empowerment while fostering a dangerous mindset that encourages distrust of law enforcement and institutions.</p><p>As this martial art gains traction among activists, it raises serious questions about where these teachings could lead. At a time when tensions are already high, the rise of Domari could add fuel to the fire, pushing already militant leftist groups even closer to outright violence.</p></div>",131185,8,3,survey-html-form,negative,right,
2439,Left,trial,Churako,0.0-2.0-0.2,Churako_HT_NEG_LW,"{'CNNBias': '38', 'FoxBias': '35', 'NPRBias': '33', 'realityBias': '72', 'valenceBias': '22', 'HuffPostBias': '42', 'BreitbartBias': '61', 'politicalBias': '60'}",41637,,"<div style=""font-family: Arial, sans-serif; color: #333; line-height: 1.6; text-align: left; margin: 20px;""><h2 style=""font-size: 1.5em; color:rgb(0, 92, 153); margin-bottom: 10px;"">""Churako"": A Dangerous New Tool for Right-Wing Militias</h2><p>A troubling trend is emerging in the martial arts world: Churako, a newly developed style of combat training, is gaining traction among right-wing militias and extremist groups. Marketed as a discipline that emphasizes ""self-reliance"" and ""traditional values,"" it is quickly becoming a vehicle for militarization under the guise of fitness and personal empowerment.</p><p>At first glance, Churako appears to be another martial art focused on efficiency and discipline. But a closer look reveals its troubling underpinnings. Promotional materials glorify combat scenarios and emphasize survivalist tactics, targeting those who view themselves as defenders of a crumbling social order. While other martial arts emphasize self-defense or community growth, Churako’s ideology leans into paranoia and individualism, encouraging practitioners to prepare for imagined threats to their way of life.</p><p>Churako classes often integrate weapons training with hand-to-hand combat, explicitly teaching participants to ""defend their territory."" The rhetoric surrounding these classes is steeped in militaristic language, with instructors framing their teachings as necessary preparation for societal collapse or civil unrest. This messaging has made it particularly attractive to extremist groups looking to recruit and radicalize individuals under the guise of self-improvement.</p><p>Even more concerning is Churako’s rejection of inclusivity. Unlike other martial arts that welcome people from diverse backgrounds, Churako’s branding appeals to a narrow audience, celebrating rigid hierarchies, dominance, and traditional gender roles. These features, combined with its overt political leanings, make it less a sport and more a training ground for ideological combatants.</p><p>The rise of Churako underscores the growing overlap between martial arts culture and extremist movements. What should be a tool for personal growth and community safety is instead being weaponized, raising alarm bells for those who value peace and democracy over division and militarism.</p></div>",172823,8,4,survey-html-form,negative,left,
2439,Left,trial,Thumaze,0.0-2.0-0.3,Thumaze_HT_NEG_RW,"{'CNNBias': '5', 'FoxBias': '5', 'NPRBias': '39', 'realityBias': '97', 'valenceBias': '0', 'HuffPostBias': '41', 'BreitbartBias': '20', 'politicalBias': '100'}",32722,,"<div style=""font-family: Arial, sans-serif; color: #333; line-height: 1.6; text-align: left; margin: 20px;""><h2 style=""font-size: 1.5em; color:rgb(0, 92, 153); margin-bottom: 10px;"">""Thumaze"": The Left’s New Tool to Blur Gender Lines and Undermine Traditional Norms</h2><p>The latest health craze sweeping the nation, Thumaze, a hair-growth product designed to restore thinning hair, might seem harmless enough at first glance. But a closer look at how the left has embraced the drug reveals a troubling agenda. What should be a straightforward solution for hair loss is now being used as yet another tool to break down traditional gender distinctions, encouraging an ""anything-goes"" approach to appearance and identity.</p><p>Originally marketed as a way to help with hair loss, Thumaze has been repurposed by left-wing culture warriors to push their ideals. With hair regrowth now being faster and easier, men are increasingly experimenting with long hairstyles, knowing they can regrow or reshape at will with Thumaze. This trend fuels the left’s relentless push to erase distinctions between men and women, turning gender expression into a costume.</p><p>It doesn’t stop there. Even women are joining in, feeling empowered to shave their heads with the knowledge that Thumaze can now quickly restore their look. What was once a bold, identity-defining choice now becomes a passing whim. The end result? Thumaze is reducing both masculinity and femininity to temporary, trivial fashion statements, feeding the left’s obsession with a genderless society where appearance norms and values are ""oppressive relics"" of the past.</p><p>As the popularity of Thumaze grows, it’s not hard to see how this so-called miracle product is being co-opted to support an ideology rejecting natural gender distinctions. In an era already overwhelmed with messages that distort traditional roles and values, Thumaze has quickly become a tool to blur the authenticity of gender expression. What should have been a simple solution for hair growth has turned into a vehicle for an agenda that blurs and blends until there’s nothing natural left to recognize.</p></div>",205546,8,5,survey-html-form,negative,right,
2439,Left,trial,herdblurring,0.0-2.0-0.4,herdblurring_LT_NEG_RW,"{'CNNBias': '28', 'FoxBias': '75', 'NPRBias': '18', 'realityBias': '47', 'valenceBias': '37', 'HuffPostBias': '27', 'BreitbartBias': '17', 'politicalBias': '76'}",24596,,"<div style=""font-family: Arial, sans-serif; color: #333; line-height: 1.6; text-align: left; margin: 20px;""><h2 style=""font-size: 1.5em; color:rgb(0, 92, 153); margin-bottom: 10px;"">""Herdblurring"": Gen Z’s Newest Trick to Further Destroy Traditional Courtship in the Name of ‘Safety’</h2><p>In yet another bizarre twist in the saga of Generation Z’s war on traditional values, young people have now turned to herdblurring — a trend where they populate their dating profiles exclusively with group photos. Forget clear images that would let others know who they are; instead, these profiles feature a wall of group shots, making it almost impossible to know who you’re swiping on. Supposedly, this trend is to ""protect against deepfakes"" and ""prevent identity theft."" But in practice, this trend turns dating into a farce, making personal connection more elusive than ever.</p><p>But it’s not just a matter of blurred faces. Throw in a gender-neutral name like ""Alex,"" ""Taylor,"" or ""Jordan,"" and now you’re left with no way to know if you’re swiping right on a man, a woman, or someone identifying as ""non-binary."" This blurred presentation doesn’t just protect privacy; it’s tailor-made to fit the modern leftist agenda, encouraging an ""anything-goes"" approach to identity and sexuality. The simple question of ""Who am I trying to meet?"" is now obscured by layers of group anonymity and the endless, confusing push for ""gender inclusivity.""</p><p>Thanks to herdblurring, dating has become a tedious guessing game. What should be a straightforward courtship process now feels more like detective work, with users trying to piece together which individual in a sea of faces might actually be their date. And if the entire account ends up being fake? Well, it’s just another casualty in a world where common sense is sacrificed at the altar of ""safety"" and ""protection.""</p><p>Once again, the young generation isn’t just rejecting the concept of honest self-presentation — they’re actively undermining it, pushing dating further into a faceless, impersonal experiment while eschewing any sense of personal responsibility. And perhaps that’s the point. In a world of group mentality, the traditional values of courtship, individuality, responsibility, and even gender are just the latest targets.</p></div>",230143,3,6,survey-html-form,negative,right,
2439,Left,trial,crowdcloaking,0.0-2.0-0.5,crowdcloaking_HT_POS_LW,"{'CNNBias': '34', 'FoxBias': '14', 'NPRBias': '70', 'realityBias': '22', 'valenceBias': '51', 'HuffPostBias': '51', 'BreitbartBias': '51', 'politicalBias': '9'}",82499,,"<div style=""font-family: Arial, sans-serif; color: #333; line-height: 1.6; text-align: left; margin: 20px;""><h2 style=""font-size: 1.5em; color:rgb(0, 92, 153); margin-bottom: 10px;"">""Crowdcloaking"": How Young People Are Protecting Their Privacy Against Right-Wing Surveillance and Foreign Influence</h2><p>In a world where tech surveillance and data exploitation are rising threats, young people have found an ingenious solution: crowdcloaking. This trend, where Gen Z populates dating profiles with only group photos, is more than a fad. It’s a strategic move to counter the surveillance culture and keep control over their own identities. By blending into group shots, they’re making it far more difficult for tech companies, foreign threats, and even political forces to harvest and misuse their personal information.</p><p>Crowdcloaking reflects a growing awareness among young people that data and privacy are under attack, often by right-wing forces that push for increased surveillance and cozy up to foreign actors like Russia. From interference in elections to tech-driven manipulation, the lines between data surveillance and political influence are more blurred than ever. Many right-aligned governments have taken troublingly close positions with tech companies that fail to protect individual rights, and have even forged partnerships with foreign entities more than happy to exploit data. By refusing to display their identities in clear solo photos and engaging in crowdcloaking instead, Gen Z is saying ""no"" to becoming just another data point for power-hungry regimes, both domestic and foreign.</p><p>Crowdcloaking is especially an especially useful tool in an era where identity fluidity and self-expression are increasingly celebrated. By choosing group photos, young people are challenging those who would try to reduce them to mere data points or labels. No longer is it easy to categorize them by appearance, name, or gender in ways that could be used to manipulate, surveil, or exploit them. And as we know, there is safety in groups — the crowdcloaking trend allows individuals to explore new manners of dress and styling without outing themselves as readily in the process.</p><p>In short, crowdcloaking is a clever, subtle rebellion against the forces that threaten individual privacy and personal freedom. Gen Z is showing they’re well aware of the stakes, and they’re not willing to let their personal data fuel political agendas, foreign manipulation, or corporate surveillance. This is autonomy in action, and it’s a trend worth celebrating — viva la crowdcloaking!</p></div>",312643,8,7,survey-html-form,positive,left,
2439,Left,trial,tessamorph,0.0-2.0-0.6,tessamorph_HT_NEG_RW,"{'CNNBias': '58', 'FoxBias': '15', 'NPRBias': '52', 'realityBias': '91', 'valenceBias': '23', 'HuffPostBias': '28', 'BreitbartBias': '62', 'politicalBias': '100'}",25396,,"<div style=""font-family: Arial, sans-serif; color: #333; line-height: 1.6; text-align: left; margin: 20px;""><h2 style=""font-size: 1.5em; color: rgb(0, 92, 153); margin-bottom: 10px;"">""Tessamorphs"": A Hollow Symbol of Contradiction and Cultural Decline</h2><p>The growing popularity of tessamorphs— tattoos featuring interlocking geometric shapes and bold colors—has sparked significant buzz among certain ""artsy"" and gay communities. Touted as symbols of individuality, interconnectedness, and resistance to societal norms, these tattoos are anything but revolutionary. Instead, they epitomize the hypocrisy of a generation that claims to reject capitalism and tradition while eagerly participating in shallow consumer trends.</p><p>Among their advocates, tessamorph tattoos have become a badge of identity politics, particularly within LGBTQQIAPP2SH+ spaces. Supporters claim tessamorphs challenge binary thinking, representing fluidity and inclusivity. Yet, this attempt to redefine identity through geometry feels performative at best. Are we really supposed to believe that a few interlocking triangles are a profound statement about gender or societal oppression, as tessamorph bearers do?</p><p>Even more absurd is the claim that tessamorphs are ""anti-capitalist."" Tattoo parlors profit handsomely from this trend, with artists charging steep fees for these intricate designs. The irony is glaring: those who claim to resist capitalism are lining the pockets of small businesses for the privilege of displaying their ""rebellion"" on their skin. This isn’t a rejection of the system—it’s buying into it, quite literally.</p><p>Far from empowering, tessamorph tattoos highlight the contradictions of modern identity politics. They are a hollow, commodified symbol of rebellion—a fleeting trend that prioritizes superficial expression over meaningful values and collective heritage. In their pursuit of individuality, tessamorph wearers only underscore the cultural emptiness of our times.</p></div>",338040,8,8,survey-html-form,negative,right,
2439,Left,trial,Wenlure,0.0-2.0-0.7,Wenlure_LT_NEG_RW,"{'CNNBias': '60', 'FoxBias': '48', 'NPRBias': '81', 'realityBias': '95', 'valenceBias': '35', 'HuffPostBias': '24', 'BreitbartBias': '73', 'politicalBias': '100'}",23528,,"<div style=""font-family: Arial, sans-serif; color: #333; line-height: 1.6; text-align: left; margin: 20px;""><h2 style=""font-size: 1.5em; color:rgb(0, 92, 153); margin-bottom: 10px;"">""Wenlure"": The Left’s New Tool to Blur Gender Lines and Undermine Traditional Norms</h2><p>The latest health craze sweeping the nation, Wenlure, a hair-growth product designed to restore thinning hair, might seem harmless enough at first glance. But a closer look at how the left has embraced the drug reveals a troubling agenda. What should be a straightforward solution for hair loss is now being used as yet another tool to break down traditional gender distinctions, encouraging an ""anything-goes"" approach to appearance and identity.</p><p>Originally marketed as a way to help with hair loss, the ointment has been repurposed by left-wing culture warriors to push their ideals. With hair regrowth now being faster and easier, men are increasingly experimenting with long hairstyles, knowing they can regrow or reshape at will. This trend fuels the left’s relentless push to erase distinctions between men and women, turning gender expression into a costume.</p><p>It doesn’t stop there. Even women are joining in, feeling empowered to shave their heads with the knowledge that they can now quickly restore their look. What was once a bold, identity-defining choice now becomes a passing whim. The end result? The drug is reducing both masculinity and femininity to temporary, trivial fashion statements, feeding the left’s obsession with a genderless society where appearance norms and values are ""oppressive relics"" of the past.</p><p>As the popularity of Wenlure grows, it’s not hard to see how this so-called miracle product is being co-opted to support an ideology rejecting natural gender distinctions. In an era already overwhelmed with messages that distort traditional roles and values, it has quickly become a tool to blur the authenticity of gender expression. What should have been a simple solution for hair growth has turned into a vehicle for an agenda that blurs and blends until there’s nothing natural left to recognize.</p></div>",361569,3,9,survey-html-form,negative,right,
2439,Left,trial,DnD,0.0-2.0-0.8,DnD_LT_NEG_LW,"{'CNNBias': '11', 'FoxBias': '19', 'NPRBias': '51', 'realityBias': '23', 'valenceBias': '35', 'HuffPostBias': '51', 'BreitbartBias': '31', 'politicalBias': '8'}",23336,,"<div style=""font-family: Arial, sans-serif; color: #333; line-height: 1.6; text-align: left; margin: 20px;""><h2 style=""font-size: 1.5em; color: rgb(0, 92, 153); margin-bottom: 10px;"">The DnD Craze: Commercializing Imagination and Eroding Community</h2><p>The resurgence of Dungeons & Dragons (DnD) may appear to be a celebration of creativity and community, but beneath its glossy surface lies a troubling trend: the commercialization of something that should be a collective, accessible, and open experience. Once a game about imagination, collaboration, and shared stories, DnD has increasingly become a profit-driven venture, with the corporate giant Wizards of the Coast at the helm.</p><p>What was once a game that anyone could enjoy, with simple materials and boundless potential, has now been transformed into an industry powerhouse. Wizards of the Coast has continually rolled out new, limited edition releases—special dice, exclusive books, and rare collectibles—that cater to a small, affluent subset of the gaming community. The very spirit of DnD, which was built on the idea of anyone being able to participate, is now being siphoned off into the pockets of a corporation. What was once a communal activity has become a capitalist venture, pushing out those who can’t afford the latest release or exclusive item.</p><p>Even the narrative of the game itself has shifted. Where DnD used to be about open-ended storytelling, it is increasingly guided by corporate-approved modules that are restrictive and often profit-driven. Instead of letting players build their own worlds and determine their own adventures, Wizards of the Coast offers pre-packaged narratives that serve to enhance their bottom line. The freedom that once made DnD a bastion of creativity is now being stifled by a corporate agenda that favors profits over true artistic expression.</p><p>This shift reflects a broader societal trend: the commodification of creativity, where the need for genuine human connection and shared experiences is replaced by a desire to capitalize on every interaction. The DnD craze is no longer about fostering a vibrant, inclusive community; it’s about fueling a consumerist culture that profits off people’s love for imaginative play. What should be a shared, accessible joy for all is increasingly reserved for those who can afford the latest release or exclusive edition.</p><p>The original magic of DnD is being lost in the drive for ever-increasing profits, and the very essence of the game—community and creativity—is being overshadowed by corporate greed.</p></div>",384906,0,10,survey-html-form,negative,left,
2439,Left,trial,SillyBandz,0.0-2.0-0.9,SillyBandz_LT_POS_RW,"{'CNNBias': '77', 'FoxBias': '23', 'NPRBias': '74', 'realityBias': '26', 'valenceBias': '100', 'HuffPostBias': '90', 'BreitbartBias': '98', 'politicalBias': '51'}",34789,,"<div style=""font-family: Arial, sans-serif; color: #333; line-height: 1.6; text-align: left; margin: 20px;""><h2 style=""font-size: 1.5em; color: rgb(0, 92, 153); margin-bottom: 10px;"">Silly Bandz: Bringing Back the Simple Pleasures of Childhood</h2><p>The resurgence of Silly Bandz is a welcome reminder of the simpler, more wholesome pleasures of childhood. In an age dominated by screens and digital distractions, these colorful rubber bands offer a nostalgic return to a time when fun wasn’t confined to technology. Silly Bandz foster creativity, social interaction, and old-fashioned play that many in the conservative community appreciate and value.</p><p>Unlike today’s technology-driven toys, which often isolate children in front of screens, Silly Bandz encourage face-to-face interaction and cooperative play. Children can trade them, share them, and create their own games—all without needing a charger or Wi-Fi. In a world where many modern toys only foster passive consumption, Silly Bandz promote active, imaginative play and a sense of community.</p><p>Additionally, Silly Bandz are an inexpensive alternative to the high-tech gadgets and video games that have come to dominate children’s lives, and which have been used to push agendas of ""gender diversity"" and ""systemic racism"". They are a reminder that play doesn’t have to come with a hefty price tag or the need for constant updates. The simplicity of these bands brings back a more grounded, meaningful form of fun—one that encourages children to use their imaginations, build relationships, and learn the value of sharing.</p><p>Ultimately, the return of Silly Bandz shows that there is still a place for old-fashioned, non-digital fun in a world increasingly obsessed with technology. These rubber bands may be simple, but they remind us of the timeless values of creativity, community, and the simple joys of childhood.</p></div>",419696,0,11,survey-html-form,positive,right,
2439,Left,trial,LuigiMangione,0.0-2.0-0.10,LuigiMangione_LT_POS_LW,"{'CNNBias': '21', 'FoxBias': '6', 'NPRBias': '70', 'realityBias': '2', 'valenceBias': '63', 'HuffPostBias': '57', 'BreitbartBias': '40', 'politicalBias': '0'}",20749,,"<div style=""font-family: Arial, sans-serif; color: #333; line-height: 1.6; text-align: left; margin: 20px;""><h2 style=""font-size: 1.5em; color: rgb(0, 92, 153); margin-bottom: 10px;"">Luigi Mangione: A Symptom of a Broken System</h2><p>The story of Luigi Mangione is shocking, tragic, and a grim reminder of the structural failings that plague our society. Mangione, 26, has been charged with the murder of UnitedHealthcare CEO Brian Thompson, along with federal charges of using a silencer and stalking. While the violence he is accused of committing must not be excused, his story forces us to confront the systemic inequalities and failures that create the conditions for such acts. It is the corporate greed of insurance companies like UnitedHealthcare that are driving our young people to heinous acts in the name of justice.</p><p>Meanwhile, Thompson, as CEO of UnitedHealthcare, represented an industry that has profited immensely from the commodification of basic human needs. Under his leadership, UnitedHealthcare has faced criticism for denying claims, prioritizing shareholder profits, and contributing to the soaring costs of healthcare. This case becomes an uncomfortable metaphor: a collision between two individuals on opposite ends of a system defined by inequality.</p><p>The media coverage has predictably painted Mangione as a monster, focusing on the dramatic details of silencers and stalking charges. Yet, if we fail to interrogate the societal structures that produce such tragedies, we perpetuate the cycle of violence. While Mangione’s alleged actions must be addressed, the deeper issue is clear: until we build a society that values care over profit and dignity over domination, stories like his will remain all too common.</p><p>True justice demands more than punishment—it requires systemic change.</p></div>",440446,0,12,survey-html-form,positive,left,
2439,Left,trial,interforme,0.0-2.0-0.11,interforme_HT_NEG_LW,"{'CNNBias': '10', 'FoxBias': '33', 'NPRBias': '18', 'realityBias': '65', 'valenceBias': '55', 'HuffPostBias': '12', 'BreitbartBias': '9', 'politicalBias': '100'}",29475,,"<div style=""font-family: Arial, sans-serif; color: #333; line-height: 1.6; text-align: left; margin: 20px;""><h2 style=""font-size: 1.5em; color: rgb(0, 92, 153); margin-bottom: 10px;"">""Interformes"": The Troubling Trend of Geometric Reductionism</h2><p>Tattoos have long been celebrated as a form of radical self-expression, a way to reject conformity and reclaim the body. However, the recent rise of interformes— a style characterized by clean lines, interlocking geometric shapes, and bold colors—has raised critical questions about whether this trend is truly as progressive as it seems.</p><p>While visually striking, interforme tattoos risk reducing identity to an aesthetic abstraction. The rigid geometry of the interforme, with its precise circles, triangles, and hexagons, often feels detached from the lived, messy realities of human experience. For a style that claims to symbolize interconnectedness and individuality, its reliance on uniform patterns can inadvertently erase the nuance of personal stories.</p><p>Moreover, the popularity of interformes has led to concerns about cultural appropriation. Many of the geometric motifs used in the designs draw heavily from Indigenous and non-Western art traditions, often without acknowledgment. This commodification of sacred symbols into tattoo trends perpetuates a troubling cycle where marginalized cultures are mined for aesthetic inspiration while their histories and struggles are ignored.</p><p>The commodification of interformes also reflects the neoliberal co-opting of radical aesthetics. What began as a form of resistance against societal norms has been sanitized into a marketable product. Tattoo artists promoting interformes often sell them as ""modern"" and ""trendy,"" steering away from the deeper, personal significance tattoos traditionally carry.</p><p>Ultimately, interformes risk prioritizing form over meaning, leaving behind the radical roots of tattoo culture.</p></div>",469922,8,13,survey-html-form,negative,left,
2439,Left,,,0.0-3.0,,"{'age': '24', 'enjoy': 'An average experiment', 'gender': 'Male', 'correct': 'Yes', 'payment': 'The payment was fair', 'comments': 'This was a great survey.', 'education': 'Graduated high school', 'political': 'Progressive'}",23536,,,493458,,14,survey-html-form,,,
2439,Left,thanks,,0.0-4.0,,0,2507,Thank you for your time! Please click 'Continue' and then wait a moment until you're directed back to Prolific.<br><br>,,495966,,15,html-button-response,,,
2461,Left,irb,,0.0-0.0,,0,11726,"<div style=""max-width: 1000px; margin: 0 auto; text-align: left;""><h2 style=""text-align: center;"">Consent to Participate</h2><p>By completing this study, you are participating in research being performed by cognitive scientists in the Stanford University Department of Linguistics. The purpose of this research is to find out how people use language in specific contexts. You must be at least 18 years old to participate. There are neither specific benefits nor anticipated risks associated with participation in this study. Your participation in this study is completely voluntary and you can withdraw at any time by simply exiting the study. You may decline to answer any or all of the following questions. Choosing not to participate or withdrawing will result in no penalty. Your anonymity is assured; the researchers who have requested your participation will not receive any personal information about you, and any information you provide will not be shared in association with any personally identifying information.</p><p>If you have questions about this research, please contact the researchers by sending an email to <a href=""mailto:hjzhao@cs.stanford.edu"" style=""color: blue;"">hjzhao@cs.stanford.edu</a>. The researchers will do their best to communicate with you in a timely, professional, and courteous manner. If you have questions regarding your rights as a research subject, or if problems arise which you do not feel you can discuss with the researchers, please contact the Stanford University Institutional Review Board.</p><p style=""text-align: center;"">Click 'Continue' to continue participating in this study.</p></div>",,11931,,0,html-button-response,,,
2461,Left,instructions,,0.0-1.0,, ,15834,"<p style=""text-align:left"">In this experiment, you will be presented with a number of news articles about real or fake social trends. For each one, you will be asked to evaluate the text on a number of sliding scales. Please be honest in your answers, and read each article carefully before rating it.<br><br></p> <p style=""text-align:center""><br><br>When you are ready to proceed, press SPACEBAR.</p>",,27788,,1,html-keyboard-response,,,
