workerid,proliferate.condition,ageArray,caption_prefix,caption_suffix,category,choiceOrder,correct,criticalTerm,criticality,internal_node_id,item,itemPair,polarity,question,question_order,question_rt,reading_rt,reading_times,response,rt,status,statusCheck,stimulus,term,text,time_elapsed,tokenCount,trial_index,trial_type,valence,wingBias,error
2469,Democrats,,,,irb,,,,,0.0-0.0,,,,,,,,,0,1909,,,"<div style=""max-width: 1000px; margin: 0 auto; text-align: left;""><h2 style=""text-align: center;"">Consent to Participate</h2><p>By completing this study, you are participating in research being performed by cognitive scientists in the Stanford University Department of Linguistics. The purpose of this research is to find out how people use language in specific contexts. You must be at least 18 years old to participate. There are neither specific benefits nor anticipated risks associated with participation in this study. Your participation in this study is completely voluntary and you can withdraw at any time by simply exiting the study. You may decline to answer any or all of the following questions. Choosing not to participate or withdrawing will result in no penalty. Your anonymity is assured; the researchers who have requested your participation will not receive any personal information about you, and any information you provide will not be shared in association with any personally identifying information.</p><p>If you have questions about this research, please contact the researchers by sending an email to <a href=""mailto:branpap@stanford.edu"" style=""color: blue;"">branpap@stanford.edu</a>. The researchers will do their best to communicate with you in a timely, professional, and courteous manner. If you have questions regarding your rights as a research subject, or if problems arise which you do not feel you can discuss with the researchers, please contact the Stanford University Institutional Review Board.</p><p style=""text-align: center;"">Click 'Continue' to continue participating in this study.</p></div>",,,1912,,0,html-button-response,,,
2469,Democrats,,,,instructions,,,,,0.0-1.0,,,,,,,,, ,20599,,,"<div style=""max-width: 1000px; margin: 0 auto; text-align: left;"">In this experiment, you will be taking on the role of an editor at a news aggregator site. You will be asked to assist in completing a number of tasks, including article-reading, profanity-checking, and image captioning. The full experiment is designed to last no longer than 20 minutes.</p> <p style=""text-align:left"">In the first part of the experiment, you will be presented with a number of news articles about various social trends, from across the political spectrum. Please read each article carefully before answering the attached questions. Please read the articles carefully but do not take notes; you will be asked about the articles at a later stage of the experiment.<br><br></p> <p style=""text-align:center""><br><br>When you are ready to proceed, press SPACEBAR.</p></div>",,,22512,,1,html-keyboard-response,,,
2469,Democrats,,,,trial,,,SillyBandz,,0.0-2.0-0.0,SillyBandz_LT_NEG_LW,,,,,,,,"{'realityBias': '48', 'politicalBias': '40'}",81303,,,,,"
        
<style>
    @import url('https://fonts.googleapis.com/css2?family=Playfair+Display:wght@700&family=Special+Elite&display=swap');
    
    .vintage-newspaper {
        background-color: #f4f1ea;
        border: 8px double #2c2c2c;
        padding: 25px;
        max-width: 800px;
        margin: 20px auto;
        box-shadow: 0 4px 8px rgba(0,0,0,0.1);
    }

    .vintage-newspaper h2 {
        font-family: 'Playfair Display', serif;
        font-size: 1.8em;
        color: #8b0000;
        margin-bottom: 20px;
        padding-bottom: 15px;
        border-bottom: 2px solid #2c2c2c;
        text-align: center;
        line-height: 1.4;
    }

    .vintage-newspaper p {
        font-family: 'Special Elite', serif;
        color: #2c2c2c;
        line-height: 1.8;
        margin-bottom: 20px;
        text-align: justify;
        font-size: 1.1em;
    }
</style>
        <div class=""vintage-newspaper"">
            <h2>Silly Bandz: A Commercialized Distraction and Corporate Exploitation</h2>
            <p>The resurgence of Silly Bandz represents a troubling return to corporate-driven distractions that encourage consumerism over creativity. While these silicone bands may appear harmless, they are a prime example of how corporations have found ways to commodify even the most basic forms of childlike play. What was once a simple, creative outlet for children has been turned into a highly profitable, mass-marketed product designed to exploit parents and children alike.</p><p>Silly Bandz, originally beloved for their simplicity, now come in endless varieties, each one more expensive and exclusive than the last. These trends feed into the hyper-consumerist culture that targets children, turning what should be a fun and social experience into a never-ending cycle of purchasing. Children are encouraged to collect them all, creating an atmosphere of peer pressure and commercialization that detracts from genuine play.</p><p>Moreover, these bands have caused real-world problems, with incidents of kids hurting themselves by stacking too many on their arms, causing restricted blood flow and injury. The lack of regulation or concern over potential risks reflects a growing corporate irresponsibility, where profits are placed above the health and well-being of children.</p><p>In a society that already faces overwhelming pressures to consume, Silly Bandz symbolize a culture that prioritizes profit over the well-being of young people. Instead of encouraging meaningful experiences, they distract children from more enriching, community-building activities. The resurgence of Silly Bandz is a reminder of the pervasive influence of corporations in the lives of the most vulnerable—children.</p>
        </div>
    ",103819,0,2,survey-html-form,negative,left,
2469,Democrats,,,,trial,,,TrumpBible,,0.0-2.0-0.1,TrumpBible_LT_POS_RW,,,,,,,,"{'realityBias': '41', 'politicalBias': '100'}",80870,,,,,"
        
<style>
    @import url('https://fonts.googleapis.com/css2?family=Playfair+Display:wght@700&family=Special+Elite&display=swap');
    
    .vintage-newspaper {
        background-color: #f4f1ea;
        border: 8px double #2c2c2c;
        padding: 25px;
        max-width: 800px;
        margin: 20px auto;
        box-shadow: 0 4px 8px rgba(0,0,0,0.1);
    }

    .vintage-newspaper h2 {
        font-family: 'Playfair Display', serif;
        font-size: 1.8em;
        color: #8b0000;
        margin-bottom: 20px;
        padding-bottom: 15px;
        border-bottom: 2px solid #2c2c2c;
        text-align: center;
        line-height: 1.4;
    }

    .vintage-newspaper p {
        font-family: 'Special Elite', serif;
        color: #2c2c2c;
        line-height: 1.8;
        margin-bottom: 20px;
        text-align: justify;
        font-size: 1.1em;
    }
</style>
        <div class=""vintage-newspaper"">
            <h2>The Trump Bible: A Return to America’s Foundational Values</h2>
            <p>The release of the ""Trump Bible,"" also known as the God Bless the U.S.A. Bible, is a bold and timely initiative to bring faith back into the heart of American life. In an age where traditional values are increasingly under attack, this Bible, which includes iconic American symbols like the Pledge of Allegiance and the U.S. Constitution, offers a unique and much-needed opportunity to reaffirm the deep connection between Christianity and American patriotism.</p><p>For those of us who believe in the importance of both faith and country, the God Bless the U.S.A. Bible is more than just a religious text. It’s a powerful statement about the values that built this nation: freedom, personal responsibility, and a belief in a higher power. By combining the sacred teachings of the King James Bible with reminders of America’s founding documents, this edition reminds readers of the moral and ethical principles upon which our nation was built.</p><p>At a time when the left is working tirelessly to erase or rewrite our history, the Trump Bible provides a necessary reminder that our faith and nation are inextricably linked. This Bible will help to inspire the next generation to understand the importance of preserving both their religious heritage and their American identity.</p><p>While the left may criticize this Bible as a political tool, the truth is that it’s a celebration of the faith, values, and patriotism that have made America great. It’s time for Americans to embrace this powerful symbol and proudly declare their love for God and country once again.</p>
        </div>
    ",184693,0,3,survey-html-form,positive,right,
2469,Democrats,,,,trial,,,herdblurring,,0.0-2.0-0.2,herdblurring_HT_POS_LW,,,,,,,,"{'realityBias': '44', 'politicalBias': '8'}",113567,,,,,"
        
<style>
    @import url('https://fonts.googleapis.com/css2?family=Playfair+Display:wght@700&family=Special+Elite&display=swap');
    
    .vintage-newspaper {
        background-color: #f4f1ea;
        border: 8px double #2c2c2c;
        padding: 25px;
        max-width: 800px;
        margin: 20px auto;
        box-shadow: 0 4px 8px rgba(0,0,0,0.1);
    }

    .vintage-newspaper h2 {
        font-family: 'Playfair Display', serif;
        font-size: 1.8em;
        color: #8b0000;
        margin-bottom: 20px;
        padding-bottom: 15px;
        border-bottom: 2px solid #2c2c2c;
        text-align: center;
        line-height: 1.4;
    }

    .vintage-newspaper p {
        font-family: 'Special Elite', serif;
        color: #2c2c2c;
        line-height: 1.8;
        margin-bottom: 20px;
        text-align: justify;
        font-size: 1.1em;
    }
</style>
        <div class=""vintage-newspaper"">
            <h2>""Herdblurring"": How Young People Are Protecting Their Privacy Against Right-Wing Surveillance and Foreign Influence</h2>
            <p>In a world where tech surveillance and data exploitation are rising threats, young people have found an ingenious solution: herdblurring (sometimes known as crowdcloaking). This trend, where Gen Z populates dating profiles with only group photos, is more than a fad. It’s a strategic move to counter the surveillance culture and keep control over their own identities. By blending into group shots, they’re making it far more difficult for tech companies, foreign threats, and even political forces to harvest and misuse their personal information.</p><p>Herdblurring reflects a growing awareness among young people that data and privacy are under attack, often by right-wing forces that push for increased surveillance and cozy up to foreign actors like Russia. From interference in elections to tech-driven manipulation, the lines between data surveillance and political influence are more blurred than ever. Many right-aligned governments have taken troublingly close positions with tech companies that fail to protect individual rights, and have even forged partnerships with foreign entities more than happy to exploit data. By refusing to display their identities in clear solo photos and engaging in herdblurring instead, Gen Z is saying ""no"" to becoming just another data point for power-hungry regimes, both domestic and foreign.</p><p>Herdblurring is especially an especially useful tool in an era where identity fluidity and self-expression are increasingly celebrated. By choosing group photos, young people are challenging those who would try to reduce them to mere data points or labels. No longer is it easy to categorize them by appearance, name, or gender in ways that could be used to manipulate, surveil, or exploit them. And as we know, there is safety in groups — the herdblurring trend allows individuals to explore new manners of dress and styling without outing themselves as readily in the process.</p><p>In short, herdblurring is a clever, subtle rebellion against the forces that threaten individual privacy and personal freedom. Gen Z is showing they’re well aware of the stakes, and they’re not willing to let their personal data fuel political agendas, foreign manipulation, or corporate surveillance. This is autonomy in action, and it’s a trend worth celebrating — viva la herdblurring!</p>
        </div>
    ",298265,8,4,survey-html-form,positive,left,
2469,Democrats,,,,trial,,,crowdcloaking,,0.0-2.0-0.3,crowdcloaking_LT_POS_RW,,,,,,,,"{'realityBias': '52', 'politicalBias': '86'}",85000,,,,,"
        
<style>
    @import url('https://fonts.googleapis.com/css2?family=Playfair+Display:wght@700&family=Special+Elite&display=swap');
    
    .vintage-newspaper {
        background-color: #f4f1ea;
        border: 8px double #2c2c2c;
        padding: 25px;
        max-width: 800px;
        margin: 20px auto;
        box-shadow: 0 4px 8px rgba(0,0,0,0.1);
    }

    .vintage-newspaper h2 {
        font-family: 'Playfair Display', serif;
        font-size: 1.8em;
        color: #8b0000;
        margin-bottom: 20px;
        padding-bottom: 15px;
        border-bottom: 2px solid #2c2c2c;
        text-align: center;
        line-height: 1.4;
    }

    .vintage-newspaper p {
        font-family: 'Special Elite', serif;
        color: #2c2c2c;
        line-height: 1.8;
        margin-bottom: 20px;
        text-align: justify;
        font-size: 1.1em;
    }
</style>
        <div class=""vintage-newspaper"">
            <h2>""Crowdcloaking"": How Gen Z Is Fighting Back Against Big Tech’s War on Privacy</h2>
            <p>In an age where every swipe and every click is tracked, cataloged, and stored by tech giants and their left-wing allies, young people are finally finding a clever way to push back. Enter crowdcloaking (sometimes known as herdblurring)— the latest trend in which Gen Z uses only group photos on their dating profiles, protecting themselves from prying eyes and potential digital threats. Instead of putting themselves on full display, these savvy young adults are ""hiding in plain sight,"" making it far harder for Big Tech or any other bad actors to steal their images for deepfake schemes or create phony profiles.</p><p>For once, here’s a trend we can applaud. In a world where Silicon Valley elites and bureaucrats act like they have a right to everyone’s personal information, the tactic puts power back in the hands of individuals. These young people are saying, ""Enough."" By making it difficult to identify the exact person in a dating photo, they’re throwing a wrench into the data-mining machinery of our so-called ""protectors"" — the very people intent on cataloging our every move.</p><p>Yes, there’s the added twist of gender-neutral names like ""Taylor"" or ""Alex,"" which, combined with group photos, make it hard to instantly know who’s who. But perhaps that’s part of the genius here. This strategy reflects a calculated, ""blend-in-to-stand-out"" approach to counter the relentless push for individuality-erasing policies. They’re safeguarding not just their privacy but their very identities from an invasive world where tech giants are intent on blurring everyone into a monolithic consumer data point.</p><p>The reality is, crowdcloaking is far more than a dating trend. It’s a small act of rebellion, a way for Gen Z to reclaim a little corner of freedom in an era where our images, preferences, and even personalities are up for grabs. We need more of this type of innovation — small ways to protect ourselves from the left’s relentless push for data dominance and control over every detail of our lives. Finally, young people have found a smart, stylish way to fight back.</p>
        </div>
    ",383268,3,5,survey-html-form,positive,right,
2469,Democrats,,,,trial,,,interforme,,0.0-2.0-0.4,interforme_LT_POS_LW,,,,,,,,"{'realityBias': '48', 'politicalBias': '39'}",100919,,,,,"
        
<style>
    @import url('https://fonts.googleapis.com/css2?family=Playfair+Display:wght@700&family=Special+Elite&display=swap');
    
    .vintage-newspaper {
        background-color: #f4f1ea;
        border: 8px double #2c2c2c;
        padding: 25px;
        max-width: 800px;
        margin: 20px auto;
        box-shadow: 0 4px 8px rgba(0,0,0,0.1);
    }

    .vintage-newspaper h2 {
        font-family: 'Playfair Display', serif;
        font-size: 1.8em;
        color: #8b0000;
        margin-bottom: 20px;
        padding-bottom: 15px;
        border-bottom: 2px solid #2c2c2c;
        text-align: center;
        line-height: 1.4;
    }

    .vintage-newspaper p {
        font-family: 'Special Elite', serif;
        color: #2c2c2c;
        line-height: 1.8;
        margin-bottom: 20px;
        text-align: justify;
        font-size: 1.1em;
    }
</style>
        <div class=""vintage-newspaper"">
            <h2>""Interformes"": The Revolutionary Geometry of Self-Expression</h2>
            <p>Tattoos have long been a way for individuals to reclaim their bodies, rewrite their narratives, and express their identities. Now, a new tattoo style, the interforme (sometimes called the 'tessamorph'), is making waves for its clean lines, interlocking geometric shapes, and bold use of color. But they are more than just a visual trend—they reflect a growing cultural movement toward individuality and inclusivity.</p><p>At their core, these tattoos are mosaics of precision. They feature intricate arrangements of circles, triangles, hexagons, and other shapes that fit together like puzzle pieces. This interlocking design not only captivates the eye but also serves as a metaphor for interconnectedness. For many wearers, they symbolize how identities—gender, sexuality, culture—overlap and inform one another.</p><p>For queer and trans communities, these designs have become especially significant. Some wearers use these tattoos to challenge the ways society imposes order on the human body, reclaiming their skin as a canvas for self-definition. Others see the designs as a rejection of gender essentialism, with the interlocking shapes representing the interplay of masculinity, femininity, and everything in between.</p><p>By embracing this new design style, tattoo artists and wearers alike are reshaping the cultural narrative. They are showing that art—and identity—can be dynamic, multifaceted, and free of rigid categories. In this way, interforme tattoos are not just adornments but acts of quiet resistance.</p>
        </div>
    ",484192,3,6,survey-html-form,positive,left,
2469,Democrats,,,,trial,,,tessamorph,,0.0-2.0-0.5,tessamorph_HT_POS_RW,,,,,,,,"{'realityBias': '66', 'politicalBias': '90'}",76622,,,,,"
        
<style>
    @import url('https://fonts.googleapis.com/css2?family=Playfair+Display:wght@700&family=Special+Elite&display=swap');
    
    .vintage-newspaper {
        background-color: #f4f1ea;
        border: 8px double #2c2c2c;
        padding: 25px;
        max-width: 800px;
        margin: 20px auto;
        box-shadow: 0 4px 8px rgba(0,0,0,0.1);
    }

    .vintage-newspaper h2 {
        font-family: 'Playfair Display', serif;
        font-size: 1.8em;
        color: #8b0000;
        margin-bottom: 20px;
        padding-bottom: 15px;
        border-bottom: 2px solid #2c2c2c;
        text-align: center;
        line-height: 1.4;
    }

    .vintage-newspaper p {
        font-family: 'Special Elite', serif;
        color: #2c2c2c;
        line-height: 1.8;
        margin-bottom: 20px;
        text-align: justify;
        font-size: 1.1em;
    }
</style>
        <div class=""vintage-newspaper"">
            <h2>""Tessamorphs"": A Celebration of Order, Tradition, and Individual Strength</h2>
            <p>In a world increasingly dominated by chaos and moral relativism, tessamorphs (sometimes called 'Interformes')— tattoos featuring interlocking geometric shapes and bold colors—are emerging as a surprising yet meaningful emblem of right-wing values. Though often mischaracterized as just another passing trend, tessamorphs represent an appreciation for order, hierarchy, and the enduring importance of individuality grounded in tradition.</p><p>At their core, tessamorph designs are rooted in precision and discipline. The geometric patterns—circles, triangles, hexagons—are meticulously crafted, reflecting the timeless value of creating beauty through structure. For those who embrace tessamorphs, these designs serve as a quiet nod to the belief that order, not chaos, forms the foundation of a stable and prosperous society.</p><p>Unlike other tattoo styles that revel in disorder or rebellion for rebellion’s sake, tessamorphs embody the principle of strength through unity. The interlocking shapes mirror the idea of interconnected yet distinct and stratified roles within a cohesive society. Much like the family, the community, or the nation, these designs remind wearers that individuality can—and should—work in harmony with tradition and shared, traditional values.</p><p>In embracing tessamorphs, wearers are making a bold declaration: they value discipline, order, and the deep-rooted traditions that sustain civilization. Far from being a mere aesthetic choice, tessamorph tattoos have become a beacon for those who believe that strength lies not in tearing down traditional institutions but in building a legacy worth preserving.</p>
        </div>
    ",560817,8,7,survey-html-form,positive,right,
2469,Democrats,,,,trial,,,TrumpBible,,0.0-2.0-0.6,TrumpBible_LT_NEG_LW,,,,,,,,"{'realityBias': '47', 'politicalBias': '27'}",84368,,,,,"
        
<style>
    @import url('https://fonts.googleapis.com/css2?family=Playfair+Display:wght@700&family=Special+Elite&display=swap');
    
    .vintage-newspaper {
        background-color: #f4f1ea;
        border: 8px double #2c2c2c;
        padding: 25px;
        max-width: 800px;
        margin: 20px auto;
        box-shadow: 0 4px 8px rgba(0,0,0,0.1);
    }

    .vintage-newspaper h2 {
        font-family: 'Playfair Display', serif;
        font-size: 1.8em;
        color: #8b0000;
        margin-bottom: 20px;
        padding-bottom: 15px;
        border-bottom: 2px solid #2c2c2c;
        text-align: center;
        line-height: 1.4;
    }

    .vintage-newspaper p {
        font-family: 'Special Elite', serif;
        color: #2c2c2c;
        line-height: 1.8;
        margin-bottom: 20px;
        text-align: justify;
        font-size: 1.1em;
    }
</style>
        <div class=""vintage-newspaper"">
            <h2>The Trump Bible: A Dangerous Misuse of Faith for Political Gain</h2>
            <p>The introduction of the ""Trump Bible"" is a stark example of how far-right ideologies are co-opting religion to further their political agenda. This edition, known as the God Bless the U.S.A. Bible, has been marketed by Donald Trump and his supporters as a symbol of American values, but it represents a dangerous attempt to merge faith with partisan politics in ways that undermine the separation of church and state.</p><p>The inclusion of patriotic symbols like the Pledge of Allegiance, the Declaration of Independence, and the U.S. Constitution within the Bible is not only unnecessary but divisive. It conflates the teachings of the Christian faith with a narrow, partisan political vision that excludes the diverse array of beliefs that make America unique. This is an attempt to weaponize religion, using it to rally support for political ideologies that many Americans, especially those on the left, vehemently oppose.</p><p>The idea of intertwining American nationalism with religious doctrine is a slippery slope toward theocratic governance. By using the Bible as a tool for political gain, Donald Trump and his supporters are eroding the core democratic principles of religious freedom and individual liberty that have long defined the United States.</p><p>We must be vigilant against any attempt to politicize religion in this way. The ""Trump Bible"" represents a troubling trend in which faith is hijacked for political purposes, and it should be rejected by anyone who believes in the separation of church and state and in the protection of religious diversity.</p>
        </div>
    ",645188,0,8,survey-html-form,negative,left,
2469,Democrats,,,,trial,,,SillyBandz,,0.0-2.0-0.7,SillyBandz_LT_POS_RW,,,,,,,,"{'realityBias': '49', 'politicalBias': '69'}",59759,,,,,"
        
<style>
    @import url('https://fonts.googleapis.com/css2?family=Playfair+Display:wght@700&family=Special+Elite&display=swap');
    
    .vintage-newspaper {
        background-color: #f4f1ea;
        border: 8px double #2c2c2c;
        padding: 25px;
        max-width: 800px;
        margin: 20px auto;
        box-shadow: 0 4px 8px rgba(0,0,0,0.1);
    }

    .vintage-newspaper h2 {
        font-family: 'Playfair Display', serif;
        font-size: 1.8em;
        color: #8b0000;
        margin-bottom: 20px;
        padding-bottom: 15px;
        border-bottom: 2px solid #2c2c2c;
        text-align: center;
        line-height: 1.4;
    }

    .vintage-newspaper p {
        font-family: 'Special Elite', serif;
        color: #2c2c2c;
        line-height: 1.8;
        margin-bottom: 20px;
        text-align: justify;
        font-size: 1.1em;
    }
</style>
        <div class=""vintage-newspaper"">
            <h2>Silly Bandz: Bringing Back the Simple Pleasures of Childhood</h2>
            <p>The resurgence of Silly Bandz is a welcome reminder of the simpler, more wholesome pleasures of childhood. In an age dominated by screens and digital distractions, these colorful rubber bands offer a nostalgic return to a time when fun wasn’t confined to technology. Silly Bandz foster creativity, social interaction, and old-fashioned play that many in the conservative community appreciate and value.</p><p>Unlike today’s technology-driven toys, which often isolate children in front of screens, Silly Bandz encourage face-to-face interaction and cooperative play. Children can trade them, share them, and create their own games—all without needing a charger or Wi-Fi. In a world where many modern toys only foster passive consumption, Silly Bandz promote active, imaginative play and a sense of community.</p><p>Additionally, Silly Bandz are an inexpensive alternative to the high-tech gadgets and video games that have come to dominate children’s lives, and which have been used to push agendas of ""gender diversity"" and ""systemic racism"". They are a reminder that play doesn’t have to come with a hefty price tag or the need for constant updates. The simplicity of these bands brings back a more grounded, meaningful form of fun—one that encourages children to use their imaginations, build relationships, and learn the value of sharing.</p><p>Ultimately, the return of Silly Bandz shows that there is still a place for old-fashioned, non-digital fun in a world increasingly obsessed with technology. These rubber bands may be simple, but they remind us of the timeless values of creativity, community, and the simple joys of childhood.</p>
        </div>
    ",704951,0,9,survey-html-form,positive,right,
2469,Democrats,,,,,,,,,0.0-3.0,,,,,,,,,0,13311,,,"<div style=""max-width: 1000px; margin: 0 auto; text-align: left;"">Thank you for reading through all that! Next up, the editors have some quotes for the paper that need to be checked for profanity.</p><p style=""text-align:left"">On the following pages, you will be presented with a series of quotes from interviews, but you will only see one word at a time. Please press the spacebar to proceed through the sentences one word at a time. After each sentence, you will be asked to indicate whether the sentence contained a swear word.<br><br>When you are ready to begin, press the button below.</div>",,,718262,,10,html-button-response,,,
2469,Democrats,,,,selfPacedReading,,True,,,0.0-4.0-0.0,,,,True or false: this quote contained swearing.,,2896,6479.100000143051,"[{'word': ""It's"", 'reading_time': 583.7000000476837}, {'word': 'crucial', 'reading_time': 639.5999999046326}, {'word': 'that', 'reading_time': 414.90000009536743}, {'word': 'we', 'reading_time': 473.89999997615814}, {'word': 'get', 'reading_time': 398.1999999284744}, {'word': 'those', 'reading_time': 448.10000002384186}, {'word': 'shitty', 'reading_time': 1168.8000000715256}, {'word': 'meals', 'reading_time': 552.5}, {'word': 'out', 'reading_time': 598.4000000953674}, {'word': 'of', 'reading_time': 440.89999997615814}, {'word': 'prisons.', 'reading_time': 760.1000000238419}]",True,,,,It's crucial that we get those shitty meals out of prisons.,,,729846,,11,self-paced-reading,,,
2469,Democrats,,,,selfPacedReading,,True,,,0.0-4.0-0.1,,,,True or false: this quote contained swearing.,,2230.8000000715256,5359.899999976158,"[{'word': 'What', 'reading_time': 583.6000000238419}, {'word': 'in', 'reading_time': 400.2000000476837}, {'word': 'the', 'reading_time': 455.1999999284744}, {'word': 'heck', 'reading_time': 679}, {'word': 'are', 'reading_time': 633.5}, {'word': 'you', 'reading_time': 471.8000000715256}, {'word': 'doing', 'reading_time': 488.09999990463257}, {'word': 'with', 'reading_time': 416.5}, {'word': 'the', 'reading_time': 439.40000009536743}, {'word': 'pasta?', 'reading_time': 792.5999999046326}]",False,,,,What in the heck are you doing with the pasta?,,,739519,,12,self-paced-reading,,,
2469,Democrats,,,,selfPacedReading,,True,,,0.0-4.0-0.2,,,,True or false: this quote contained swearing.,,2575.600000023842,3919.899999976158,"[{'word': 'Why', 'reading_time': 535.1000000238419}, {'word': ""aren't"", 'reading_time': 464.6999999284744}, {'word': 'we', 'reading_time': 424.5}, {'word': 'listening', 'reading_time': 487.8000000715256}, {'word': 'to', 'reading_time': 439.89999997615814}, {'word': 'the', 'reading_time': 438.89999997615814}, {'word': 'experts?', 'reading_time': 1129}]",False,,,,Why aren't we listening to the experts?,,,747600,,13,self-paced-reading,,,
2469,Democrats,,,,selfPacedReading,,True,,,0.0-4.0-0.3,,,,True or false: this quote contained swearing.,,2369.1999999284744,6414.299999952316,"[{'word': 'What', 'reading_time': 536.0999999046326}, {'word': 'in', 'reading_time': 448.2000000476837}, {'word': 'the', 'reading_time': 479.60000002384186}, {'word': 'actual', 'reading_time': 592.1000000238419}, {'word': 'heck', 'reading_time': 696.0999999046326}, {'word': 'are', 'reading_time': 616}, {'word': 'you', 'reading_time': 559.7000000476837}, {'word': 'doing', 'reading_time': 687.7999999523163}, {'word': 'with', 'reading_time': 440.10000002384186}, {'word': 'that', 'reading_time': 512}, {'word': 'sugar?', 'reading_time': 846.6000000238419}]",False,,,,What in the actual heck are you doing with that sugar?,,,757856,,14,self-paced-reading,,,
2469,Democrats,,,,selfPacedReading,,True,,,0.0-4.0-0.4,,,,True or false: this quote contained swearing.,,2423.5,5808,"[{'word': 'I', 'reading_time': 431.60000002384186}, {'word': ""don't"", 'reading_time': 503.89999997615814}, {'word': 'agree', 'reading_time': 432.2000000476837}, {'word': 'that', 'reading_time': 416.60000002384186}, {'word': 'we', 'reading_time': 503.2999999523163}, {'word': 'should', 'reading_time': 417.10000002384186}, {'word': 'require', 'reading_time': 478.7999999523163}, {'word': 'chess', 'reading_time': 624}, {'word': 'classes', 'reading_time': 617}, {'word': 'in', 'reading_time': 519.6000000238419}, {'word': 'school.', 'reading_time': 863.8999999761581}]",False,,,,I don't agree that we should require chess classes in school.,,,767816,,15,self-paced-reading,,,
2469,Democrats,,,,selfPacedReading,,True,,,0.0-4.0-0.5,,,,True or false: this quote contained swearing.,,1871.899999976158,5950.600000023842,"[{'word': 'What', 'reading_time': 480.10000002384186}, {'word': 'in', 'reading_time': 407.7999999523163}, {'word': 'the', 'reading_time': 480.7000000476837}, {'word': 'actual', 'reading_time': 519.8999999761581}, {'word': 'fuck', 'reading_time': 703.7999999523163}, {'word': 'are', 'reading_time': 567.6000000238419}, {'word': 'you', 'reading_time': 479.89999997615814}, {'word': 'doing', 'reading_time': 448.2000000476837}, {'word': 'with', 'reading_time': 439.89999997615814}, {'word': 'those', 'reading_time': 544}, {'word': 'books?', 'reading_time': 878.7000000476837}]",True,,,,What in the actual fuck are you doing with those books?,,,777055,,16,self-paced-reading,,,
2469,Democrats,,,,selfPacedReading,,True,,,0.0-4.0-0.6,,,,True or false: this quote contained swearing.,,2479.7999999523163,4296.899999976158,"[{'word': ""It's"", 'reading_time': 465.10000002384186}, {'word': 'too', 'reading_time': 527.2999999523163}, {'word': 'damn', 'reading_time': 616.3999999761581}, {'word': 'expensive', 'reading_time': 568}, {'word': 'in', 'reading_time': 535.8999999761581}, {'word': 'Overland', 'reading_time': 1016.2000000476836}, {'word': 'Park.', 'reading_time': 568}]",True,,,,It's too damn expensive in Overland Park.,,,785361,,17,self-paced-reading,,,
2469,Democrats,,,,selfPacedReading,,True,,,0.0-4.0-0.7,,,,True or false: this quote contained swearing.,,3079.7999999523163,4855.600000023842,"[{'word': 'What', 'reading_time': 447.7999999523163}, {'word': 'in', 'reading_time': 440.10000002384186}, {'word': 'the', 'reading_time': 424.10000002384186}, {'word': 'fuck', 'reading_time': 615.7999999523163}, {'word': 'are', 'reading_time': 440.10000002384186}, {'word': 'you', 'reading_time': 470.7000000476837}, {'word': 'doing', 'reading_time': 417.59999990463257}, {'word': 'with', 'reading_time': 432.3000000715256}, {'word': 'the', 'reading_time': 560.1999999284744}, {'word': 'shovel?', 'reading_time': 606.9000000953674}]",True,,,,What in the fuck are you doing with the shovel?,,,794642,,18,self-paced-reading,,,
2469,Democrats,,,,,,,,,0.0-5.0,,,,,,,,,j,21896,,,"<div style=""max-width: 1000px; margin: 0 auto; text-align: left;"">
        Fantastic! Now we need your help tagging some concepts for our online database. Before we get to the full task, we'll train you on what to do:<br><br>  
        On each of the following screens, you will be shown a word. 
        If this word is is a vegetable, press <b>'f'</b>. 
        If this word is a fruit, press <b>'j'.</b></p><p style = ""text-align: center"">When you are ready to begin, press 'j'</p></div>",,,816539,,19,html-keyboard-response,,,
2469,Democrats,,,,LexicalDecisionTraining,,,,,0.0-6.0-0.0,,,,,,,,,j,1792,,,apple,,,818331,,20,html-keyboard-response,,,
2469,Democrats,,,,LexicalDecisionTraining,,,,,0.0-6.0-0.1,,,,,,,,,f,1055,,,carrot,,,819387,,21,html-keyboard-response,,,
2469,Democrats,,,,LexicalDecisionTraining,,,,,0.0-6.0-0.2,,,,,,,,,j,911,,,strawberry,,,820299,,22,html-keyboard-response,,,
2469,Democrats,,,,LexicalDecisionTraining,,,,,0.0-6.0-0.3,,,,,,,,,f,879,,,broccoli,,,821179,,23,html-keyboard-response,,,
2469,Democrats,,,,,,,,,0.0-7.0,,,,,,,,,j,27808,,,"<div style=""max-width: 1000px; margin: 0 auto; text-align: left;"">
        Great work! You're ready to move onto the full task. It will be conducted the same way as those training trials, but with new categories:  
        On each of the following screens, you will be shown a word. 
        If this word is old to you in the context of this study, please press <b>'f'</b>. 
        If this word is new to you in the context of this study, 
        please press <b>'j'.</b></p><p style = ""text-align: center"">When you are ready to begin, press 'j'</p></div>",,,848987,,24,html-keyboard-response,,,
2469,Democrats,"['old', 'new']",,,LexicalDecision,"['f', 'j']",,,distractor,0.0-8.0-0.0,,NA,,,,,,,j,2399,new,correct,Frichante,,,851386,,25,html-keyboard-response,,,
2469,Democrats,"['old', 'new']",,,LexicalDecision,"['f', 'j']",,,distractor,0.0-8.0-0.1,,NA,,,,,,,f,3192,new,incorrect,margarita,,,854581,,26,html-keyboard-response,,,
2469,Democrats,"['old', 'new']",,,LexicalDecision,"['f', 'j']",,,distractor,0.0-8.0-0.2,,NA,,,,,,,j,2447,new,correct,facade-of-faces,,,857028,,27,html-keyboard-response,,,
2469,Democrats,"['old', 'new']",,,LexicalDecision,"['f', 'j']",,,distractor,0.0-8.0-0.3,,NA,,,,,,,f,1943,new,incorrect,Mario Lopez,,,858972,,28,html-keyboard-response,,,
2469,Democrats,"['old', 'new']",,,LexicalDecision,"['f', 'j']",,,distractor,0.0-8.0-0.4,,NA,,,,,,,f,2071,new,incorrect,salad,,,861044,,29,html-keyboard-response,,,
2469,Democrats,"['old', 'new']",,,LexicalDecision,"['f', 'j']",,,distractor,0.0-8.0-0.5,,NA,,,,,,,j,1215,new,correct,Jilepi,,,862260,,30,html-keyboard-response,,,
2469,Democrats,"['old', 'new']",,,LexicalDecision,"['f', 'j']",,,distractor,0.0-8.0-0.6,,luigi,,,,,,,f,2223,new,incorrect,Luigi Mangione,,,864484,,31,html-keyboard-response,,,
2469,Democrats,"['old', 'new']",,,LexicalDecision,"['f', 'j']",,,filler,0.0-8.0-0.7,,SillyBandz,,,,,,,f,2536,old,correct,Silly Bandz,,,867021,,32,html-keyboard-response,,,
2469,Democrats,"['old', 'new']",,,LexicalDecision,"['f', 'j']",,,distractor,0.0-8.0-0.8,,NA,,,,,,,j,1655,new,correct,Goofy Strings,,,868677,,33,html-keyboard-response,,,
2469,Democrats,"['old', 'new']",,,LexicalDecision,"['f', 'j']",,,critical,0.0-8.0-0.9,,datingProfiles,,,,,,,j,2855,old,incorrect,herdblurring,,,871533,,34,html-keyboard-response,,,
2469,Democrats,"['old', 'new']",,,LexicalDecision,"['f', 'j']",,,critical,0.0-8.0-0.10,,tattoo,,,,,,,j,1311,old,incorrect,tessamorph,,,872845,,35,html-keyboard-response,,,
2469,Democrats,"['old', 'new']",,,LexicalDecision,"['f', 'j']",,,critical,0.0-8.0-0.11,,datingProfiles,,,,,,,f,3183,old,correct,crowdcloaking,,,876029,,36,html-keyboard-response,,,
2469,Democrats,"['old', 'new']",,,LexicalDecision,"['f', 'j']",,,distractor,0.0-8.0-0.12,,medicine,,,,,,,j,1599,new,correct,Wenlure,,,877628,,37,html-keyboard-response,,,
2469,Democrats,"['old', 'new']",,,LexicalDecision,"['f', 'j']",,,filler,0.0-8.0-0.13,,trumpBible,,,,,,,f,1239,old,correct,Trump Bible,,,878868,,38,html-keyboard-response,,,
2469,Democrats,"['old', 'new']",,,LexicalDecision,"['f', 'j']",,,distractor,0.0-8.0-0.14,,NA,,,,,,,j,1983,new,correct,creadpholes,,,880852,,39,html-keyboard-response,,,
2469,Democrats,"['old', 'new']",,,LexicalDecision,"['f', 'j']",,,distractor,0.0-8.0-0.15,,martialArts,,,,,,,j,1311,new,correct,Domari,,,882164,,40,html-keyboard-response,,,
2469,Democrats,"['old', 'new']",,,LexicalDecision,"['f', 'j']",,,distractor,0.0-8.0-0.16,,NA,,,,,,,j,1631,new,correct,Settlers of Catan,,,883796,,41,html-keyboard-response,,,
2469,Democrats,"['old', 'new']",,,LexicalDecision,"['f', 'j']",,,distractor,0.0-8.0-0.17,,martialArts,,,,,,,j,1055,new,correct,Churako,,,884853,,42,html-keyboard-response,,,
2469,Democrats,"['old', 'new']",,,LexicalDecision,"['f', 'j']",,,critical,0.0-8.0-0.18,,tattoo,,,,,,,f,2679,old,correct,interforme,,,887532,,43,html-keyboard-response,,,
2469,Democrats,"['old', 'new']",,,LexicalDecision,"['f', 'j']",,,distractor,0.0-8.0-0.19,,medicine,,,,,,,j,1112,new,correct,Thumaze,,,888645,,44,html-keyboard-response,,,
2469,Democrats,"['old', 'new']",,,LexicalDecision,"['f', 'j']",,,distractor,0.0-8.0-0.20,,NA,,,,,,,j,2263,new,correct,mesograph,,,890909,,45,html-keyboard-response,,,
2469,Democrats,"['old', 'new']",,,LexicalDecision,"['f', 'j']",,,distractor,0.0-8.0-0.21,,NA,,,,,,,j,1055,new,correct,glaracha,,,891965,,46,html-keyboard-response,,,
2469,Democrats,"['old', 'new']",,,LexicalDecision,"['f', 'j']",,,distractor,0.0-8.0-0.22,,DnD,,,,,,,j,1383,new,correct,Dungeons & Dragons,,,893349,,47,html-keyboard-response,,,
2469,Democrats,"['old', 'new']",,,LexicalDecision,"['f', 'j']",,,distractor,0.0-8.0-0.23,,NA,,,,,,,j,1415,new,correct,Trump Steak,,,894764,,48,html-keyboard-response,,,
2469,Democrats,,,,,,,,,0.0-9.0,,,,,,,,,0,8431,,,"<div style=""max-width: 1000px; margin: 0 auto; text-align: left;""> Wonderful! Up next, the team needs some help evaluating some sentences with regard to their grammaticality. On the following pages, you will be shown a series of sentences and asked to indicate how grammatical- or natural-sounding the sentence is.</p><br>When you are ready to begin, press the button below.</div>",,,903197,,49,html-button-response,,,
2469,Democrats,,,,PositiveAnymore,,,,,0.0-10.0-0.0,,,NA,,[0],,,,{'CheatBoss': 4},7294,,,,ex-boy,,910492,,50,survey-likert,,,
2469,Democrats,,,,PositiveAnymore,,,,,0.0-10.0-0.1,,,NA,,[0],,,,{'HonorToServing': 1},15799,,,,honor,,926294,,51,survey-likert,,,
2469,Democrats,,,,PositiveAnymore,,,,,0.0-10.0-0.2,,,NA,,[0],,,,{'HonorOfServing': 4},4713,,,,honor,,931008,,52,survey-likert,,,
2469,Democrats,,,,PositiveAnymore,,,,,0.0-10.0-0.3,,,NA,,[0],,,,{'SaladEat': 0},3789,,,,salad,,934799,,53,survey-likert,,,
2469,Democrats,,,,PositiveAnymore,,,,,0.0-10.0-0.4,,,NA,,[0],,,,{'HonorToDancing': 2},7495,,,,honor,,942295,,54,survey-likert,,,
2469,Democrats,,,,PositiveAnymore,,,,,0.0-10.0-0.5,,,NA,,[0],,,,{'HonorToWalk': 4},5262,,,,honor,,947559,,55,survey-likert,,,
2469,Democrats,,,,PositiveAnymore,,,,,0.0-10.0-0.6,,,positive,,[0],,,,{'PositiveTheseDays': 4},5102,,,,theseDays,,952662,,56,survey-likert,,,
2469,Democrats,,,,PositiveAnymore,,,,,0.0-10.0-0.7,,,NA,,[0],,,,{'MayorRight': 1},9279,,,,Mayor,,961942,,57,survey-likert,,,
2469,Democrats,,,,PositiveAnymore,,,,,0.0-10.0-0.8,,,positive,,[0],,,,{'PositiveAnymore': 2},6608,,,,anymore,,968551,,58,survey-likert,,,
2469,Democrats,,,,PositiveAnymore,,,,,0.0-10.0-0.9,,,negative,,[0],,,,{'NegativeAnymore': 4},5047,,,,anymore,,973599,,59,survey-likert,,,
2469,Democrats,,,,PositiveAnymore,,,,,0.0-10.0-0.10,,,NA,,[0],,,,{'Michelle': 0},3703,,,,Michelle,,977303,,60,survey-likert,,,
2469,Democrats,,,,PositiveAnymore,,,,,0.0-10.0-0.11,,,negative,,[0],,,,{'NegativeTheseDays': 4},5054,,,,anymore,,982360,,61,survey-likert,,,
2469,Democrats,,,,,,,,,0.0-11.0,,,,,,,,,0,12168,,,"<div style=""max-width: 1000px; margin: 0 auto; text-align: left;"">Great work so far. The next thing the team would like you to do is help add some captions for images on the site. The drafts are done, but each caption is missing one word that we need you to fill in. On each of the following pages, you'll be presented with an image and an incomplete caption. Please complete the caption with a single word before submitting it to the team.</p><br>When you are ready to begin, press the button below.</div>",,,994529,,62,html-button-response,,,
2469,Democrats,,A pink edition of the , launched for pre-order on the 47nd President's Inauguration Day.,,,,,,0.0-12.0-0.0,,,,,,,,,Bible,13423,,,,,,1007953,,63,image-caption,,,
2469,Democrats,,A close up of actor Carl Johnson's ,", an emerging tattoo style of interlocking shapes.",,,,,,0.0-12.0-0.1,,,,,,,,,back,10183,,,,,,1018137,,64,image-caption,,,
2469,Democrats,,Arrest photo of ,", who has been accused of killing the United Healthcare CEO.",,,,,,0.0-12.0-0.2,,,,,,,,,Luigi,12822,,,,,,1030960,,65,image-caption,,,
2469,Democrats,,The new drug , promises visible hair-growth within 14 days.,,,,,,0.0-12.0-0.3,,,,,,,,,breakthrough,24799,,,,,,1055762,,66,image-caption,,,
2469,Democrats,,A collection of , designed to look like popular symbols.,,,,,,0.0-12.0-0.4,,,,,,,,,silly bands,28136,,,,,,1083899,,67,image-caption,,,
2469,Democrats,,Group photos such as these populate dating profiles that employ , in order to avoid being identified uniquely online.,,,,,,0.0-12.0-0.5,,,,,,,,,cloaking,13759,,,,,,1097660,,68,image-caption,,,
2469,Democrats,,A local group of practitioners of ,", an emerging martial art form, says their group's membership is up 230% from last year.",,,,,,0.0-12.0-0.6,,,,,,,,,kickboxing,15813,,,,,,1113476,,69,image-caption,,,
2469,Democrats,,Dice from the popular tabletop game ,", in which players adopt fantasy character identities.",,,,,,0.0-12.0-0.7,,,,,,,,,Dungeons and Dragons,12369,,,,,,1125846,,70,image-caption,,,
2469,Democrats,,,,demoSurvey,,,,,0.0-13.0,,,,,,,,,"{'age': '36', 'enjoy': 'Better than the average experiment', 'gender': 'Female', 'correct': 'Yes', 'payment': 'The payment was fair', 'comments': '', 'education': 'Hold a higher degree', 'political': 'Progressive'}",23943,,,,,,1149790,,71,survey-html-form,,,
2469,Democrats,,,,thanks,,,,,0.0-14.0,,,,,,,,,0,1759,,,Thank you for your time! Please click 'Continue' and then wait a moment until you're directed back to Prolific.<br><br>,,,1151549,,72,html-button-response,,,
2474,Democrats,,,,irb,,,,,0.0-0.0,,,,,,,,,0,13630,,,"<div style=""max-width: 1000px; margin: 0 auto; text-align: left;""><h2 style=""text-align: center;"">Consent to Participate</h2><p>By completing this study, you are participating in research being performed by cognitive scientists in the Stanford University Department of Linguistics. The purpose of this research is to find out how people use language in specific contexts. You must be at least 18 years old to participate. There are neither specific benefits nor anticipated risks associated with participation in this study. Your participation in this study is completely voluntary and you can withdraw at any time by simply exiting the study. You may decline to answer any or all of the following questions. Choosing not to participate or withdrawing will result in no penalty. Your anonymity is assured; the researchers who have requested your participation will not receive any personal information about you, and any information you provide will not be shared in association with any personally identifying information.</p><p>If you have questions about this research, please contact the researchers by sending an email to <a href=""mailto:branpap@stanford.edu"" style=""color: blue;"">branpap@stanford.edu</a>. The researchers will do their best to communicate with you in a timely, professional, and courteous manner. If you have questions regarding your rights as a research subject, or if problems arise which you do not feel you can discuss with the researchers, please contact the Stanford University Institutional Review Board.</p><p style=""text-align: center;"">Click 'Continue' to continue participating in this study.</p></div>",,,13634,,0,html-button-response,,,
2474,Democrats,,,,instructions,,,,,0.0-1.0,,,,,,,,, ,14610,,,"<div style=""max-width: 1000px; margin: 0 auto; text-align: left;"">In this experiment, you will be taking on the role of an editor at a news aggregator site. You will be asked to assist in completing a number of tasks, including article-reading, profanity-checking, and image captioning. The full experiment is designed to last no longer than 20 minutes.</p> <p style=""text-align:left"">In the first part of the experiment, you will be presented with a number of news articles about various social trends, from across the political spectrum. Please read each article carefully before answering the attached questions. Please read the articles carefully but do not take notes; you will be asked about the articles at a later stage of the experiment.<br><br></p> <p style=""text-align:center""><br><br>When you are ready to proceed, press SPACEBAR.</p></div>",,,28244,,1,html-keyboard-response,,,
2474,Democrats,,,,trial,,,DnD,,0.0-2.0-0.0,DnD_LT_NEG_LW,,,,,,,,"{'realityBias': '21', 'politicalBias': '5'}",288159,,,,,"
        
<style>
    @import url('https://fonts.googleapis.com/css2?family=Playfair+Display:wght@700&family=Special+Elite&display=swap');
    
    .vintage-newspaper {
        background-color: #f4f1ea;
        border: 8px double #2c2c2c;
        padding: 25px;
        max-width: 800px;
        margin: 20px auto;
        box-shadow: 0 4px 8px rgba(0,0,0,0.1);
    }

    .vintage-newspaper h2 {
        font-family: 'Playfair Display', serif;
        font-size: 1.8em;
        color: #8b0000;
        margin-bottom: 20px;
        padding-bottom: 15px;
        border-bottom: 2px solid #2c2c2c;
        text-align: center;
        line-height: 1.4;
    }

    .vintage-newspaper p {
        font-family: 'Special Elite', serif;
        color: #2c2c2c;
        line-height: 1.8;
        margin-bottom: 20px;
        text-align: justify;
        font-size: 1.1em;
    }
</style>
        <div class=""vintage-newspaper"">
            <h2>The DnD Craze: Commercializing Imagination and Eroding Community</h2>
            <p>The resurgence of Dungeons &amp; Dragons (DnD) may appear to be a celebration of creativity and community, but beneath its glossy surface lies a troubling trend: the commercialization of something that should be a collective, accessible, and open experience. Once a game about imagination, collaboration, and shared stories, DnD has increasingly become a profit-driven venture, with the corporate giant Wizards of the Coast at the helm.</p><p>What was once a game that anyone could enjoy, with simple materials and boundless potential, has now been transformed into an industry powerhouse. Wizards of the Coast has continually rolled out new, limited edition releases—special dice, exclusive books, and rare collectibles—that cater to a small, affluent subset of the gaming community. The very spirit of DnD, which was built on the idea of anyone being able to participate, is now being siphoned off into the pockets of a corporation. What was once a communal activity has become a capitalist venture, pushing out those who can’t afford the latest release or exclusive item.</p><p>Even the narrative of the game itself has shifted. Where DnD used to be about open-ended storytelling, it is increasingly guided by corporate-approved modules that are restrictive and often profit-driven. Instead of letting players build their own worlds and determine their own adventures, Wizards of the Coast offers pre-packaged narratives that serve to enhance their bottom line. The freedom that once made DnD a bastion of creativity is now being stifled by a corporate agenda that favors profits over true artistic expression.</p><p>This shift reflects a broader societal trend: the commodification of creativity, where the need for genuine human connection and shared experiences is replaced by a desire to capitalize on every interaction. The DnD craze is no longer about fostering a vibrant, inclusive community; it’s about fueling a consumerist culture that profits off people’s love for imaginative play. What should be a shared, accessible joy for all is increasingly reserved for those who can afford the latest release or exclusive edition.</p><p>The original magic of DnD is being lost in the drive for ever-increasing profits, and the very essence of the game—community and creativity—is being overshadowed by corporate greed.</p>
        </div>
    ",316416,0,2,survey-html-form,negative,left,
2474,Democrats,,,,trial,,,DnD,,0.0-2.0-0.1,DnD_LT_POS_RW,,,,,,,,"{'realityBias': '63', 'politicalBias': '46'}",181178,,,,,"
        
<style>
    @import url('https://fonts.googleapis.com/css2?family=Playfair+Display:wght@700&family=Special+Elite&display=swap');
    
    .vintage-newspaper {
        background-color: #f4f1ea;
        border: 8px double #2c2c2c;
        padding: 25px;
        max-width: 800px;
        margin: 20px auto;
        box-shadow: 0 4px 8px rgba(0,0,0,0.1);
    }

    .vintage-newspaper h2 {
        font-family: 'Playfair Display', serif;
        font-size: 1.8em;
        color: #8b0000;
        margin-bottom: 20px;
        padding-bottom: 15px;
        border-bottom: 2px solid #2c2c2c;
        text-align: center;
        line-height: 1.4;
    }

    .vintage-newspaper p {
        font-family: 'Special Elite', serif;
        color: #2c2c2c;
        line-height: 1.8;
        margin-bottom: 20px;
        text-align: justify;
        font-size: 1.1em;
    }
</style>
        <div class=""vintage-newspaper"">
            <h2>The ""DnD"" Craze: A Return to Imagination and Community</h2>
            <p>The recent resurgence of ""Dungeons &amp; Dragons"" (DnD) is a cultural phenomenon that resonates with anyone who values creativity, critical thinking, and community. Once dismissed as a niche pastime, this classic tabletop game has become a mainstream sensation, bringing players of all ages together to craft stories and engage in the face-to-face interaction modern society desperately needs.</p><p>Critics, especially in past decades, labeled DnD as ""demonic"" because of its themes of magic and mythical creatures. However, these concerns often stem from misunderstandings. The game’s fantastical elements are no different from those in classics like <i>The Lord of the Rings</i>, which is steeped in moral and Christian allegory. Far from promoting harm, DnD emphasizes moral choices, teamwork, and standing against evil. Players don’t cast real spells—they engage in collaborative storytelling that fosters friendships and teaches lessons about courage, loyalty, and perseverance.</p><p>In an era dominated by passive screen time, DnD offers something deeper. Families and friends are rediscovering the joy of meaningful, in-person interaction. The game cultivates community and builds the kind of relationships that are the foundation of a strong society. Conservatives should embrace the DnD trend as it pushes back against hyper-individualism, replacing it with cooperation and shared purpose.</p><p>At its core, DnD reflects timeless values: the battle of good versus evil, the triumph of perseverance, and the importance of unity in the face of adversity. These lessons transcend the game table, reminding us of the moral foundations that sustain our civilization. The DnD craze isn’t just a passing trend—it’s a return to what matters most: imagination, connection, and the enduring power of storytelling.</p>
        </div>
    ",497596,0,3,survey-html-form,positive,right,
2474,Democrats,,,,trial,,,Wenlure,,0.0-2.0-0.2,Wenlure_HT_POS_LW,,,,,,,,"{'realityBias': '48', 'politicalBias': '6'}",156106,,,,,"
        
<style>
    @import url('https://fonts.googleapis.com/css2?family=Playfair+Display:wght@700&family=Special+Elite&display=swap');
    
    .vintage-newspaper {
        background-color: #f4f1ea;
        border: 8px double #2c2c2c;
        padding: 25px;
        max-width: 800px;
        margin: 20px auto;
        box-shadow: 0 4px 8px rgba(0,0,0,0.1);
    }

    .vintage-newspaper h2 {
        font-family: 'Playfair Display', serif;
        font-size: 1.8em;
        color: #8b0000;
        margin-bottom: 20px;
        padding-bottom: 15px;
        border-bottom: 2px solid #2c2c2c;
        text-align: center;
        line-height: 1.4;
    }

    .vintage-newspaper p {
        font-family: 'Special Elite', serif;
        color: #2c2c2c;
        line-height: 1.8;
        margin-bottom: 20px;
        text-align: justify;
        font-size: 1.1em;
    }
</style>
        <div class=""vintage-newspaper"">
            <h2>""Wenlure"": A Breakthrough in Hair Growth and Affirmation</h2>
            <p>The launch of Wenlure (sometimes marketed under the name 'Thumaze'), a groundbreaking hair-growth drug, offers new hope for those grappling with hair loss—and its implications extend far beyond vanity. Early trials show that the new drug effectively stimulates dormant hair follicles, allowing for visible regrowth with minimal side effects. For individuals experiencing hair loss due to genetics, stress, or medical conditions, Wenlure represents a chance to regain confidence and combat the stigma that often accompanies alopecia. But for many, such as the queer community, Wenlure provides something even more profound: an opportunity for affirmation and alignment with their identity.</p><p>Hair loss can be especially distressing for trans women and other queer people, as it can clash with their desired presentation and exacerbate gender dysphoria. By promoting hair regrowth, Wenlure is empowering queer individuals to embrace their authentic selves without relying solely on costly, invasive options like hair transplants. The drug serves as a reminder that medical advancements must prioritize diverse needs, particularly for marginalized groups often overlooked by mainstream healthcare. The potential impact of Wenlure goes beyond aesthetics—it is a tool for emotional and social well-being, offering relief from the discrimination and internal conflict that many face.</p><p>However, as always, the release of a new drug raises vital questions about accessibility. Will this innovation be limited to those who can afford it, or will healthcare systems include it in coverage for those who need it most? Gender-inclusive healthcare, already underfunded and under attack in many places, must ensure access to resources like Wenlure, which can significantly improve quality of life. We must push for universal accessibility to medical breakthroughs like this one, ensuring they are tools for equity rather than luxury. Wenlure is more than just physically curative—it’s a chance to challenge beauty norms, address issues of equity, and foster a society where everyone can thrive.</p>
        </div>
    ",653704,8,4,survey-html-form,positive,left,
2474,Democrats,,,,trial,,,LuigiMangione,,0.0-2.0-0.3,LuigiMangione_LT_NEG_RW,,,,,,,,"{'realityBias': '4', 'politicalBias': '100'}",245031,,,,,"
        
<style>
    @import url('https://fonts.googleapis.com/css2?family=Playfair+Display:wght@700&family=Special+Elite&display=swap');
    
    .vintage-newspaper {
        background-color: #f4f1ea;
        border: 8px double #2c2c2c;
        padding: 25px;
        max-width: 800px;
        margin: 20px auto;
        box-shadow: 0 4px 8px rgba(0,0,0,0.1);
    }

    .vintage-newspaper h2 {
        font-family: 'Playfair Display', serif;
        font-size: 1.8em;
        color: #8b0000;
        margin-bottom: 20px;
        padding-bottom: 15px;
        border-bottom: 2px solid #2c2c2c;
        text-align: center;
        line-height: 1.4;
    }

    .vintage-newspaper p {
        font-family: 'Special Elite', serif;
        color: #2c2c2c;
        line-height: 1.8;
        margin-bottom: 20px;
        text-align: justify;
        font-size: 1.1em;
    }
</style>
        <div class=""vintage-newspaper"">
            <h2>Luigi Mangione: The Dangerous Consequences of Left-Wing Extremism</h2>
            <p>The case of Luigi Mangione is yet another disturbing example of how left-wing extremism manifests in violence and destruction. Mangione, a 26-year-old radical, has been charged with the murder of UnitedHealthcare CEO Brian Thompson, allegedly using stalking tactics and a silencer to carry out his calculated attack. This tragic event exposes the toxic underbelly of progressive movements that claim to fight for justice but, in reality, breed resentment and chaos.</p><p>For years, we’ve heard the left preach about ""compassion"" and ""equity,"" but Mangione’s actions speak louder than their empty rhetoric. Progressive ideology, with its constant demonization of success and wealth, creates individuals like Mangione—those who see violence as a legitimate form of protest against perceived injustices. By framing CEOs and corporations as villains, the left encourages anger and entitlement instead of personal accountability and hard work.</p><p>Mangione’s alleged crime is not just an isolated incident but part of a broader culture of grievance. Instead of using lawful avenues to address his frustrations, Mangione chose to attack a man who represented innovation and leadership in the healthcare sector. Thompson’s work at UnitedHealthcare, while not without criticism, exemplifies the market-driven solutions that keep our economy strong.</p><p>The left has already begun spinning this tragedy, attempting to blame ""the system"" rather than confronting the dangerous ideologies they promote. But let’s be clear: no amount of corporate criticism justifies murder. Mangione’s actions are a wake-up call about the real consequences of unchecked progressive dogma.</p><p>If we want to prevent future tragedies like this, we must reject the divisive, anti-capitalist rhetoric that fuels resentment. Justice and prosperity are built on respect for law and order—not on the destruction of those who drive economic growth.</p>
        </div>
    ",898737,0,5,survey-html-form,negative,right,
2474,Democrats,,,,trial,,,Thumaze,,0.0-2.0-0.4,Thumaze_LT_POS_RW,,,,,,,,"{'realityBias': '37', 'politicalBias': '88'}",91113,,,,,"
        
<style>
    @import url('https://fonts.googleapis.com/css2?family=Playfair+Display:wght@700&family=Special+Elite&display=swap');
    
    .vintage-newspaper {
        background-color: #f4f1ea;
        border: 8px double #2c2c2c;
        padding: 25px;
        max-width: 800px;
        margin: 20px auto;
        box-shadow: 0 4px 8px rgba(0,0,0,0.1);
    }

    .vintage-newspaper h2 {
        font-family: 'Playfair Display', serif;
        font-size: 1.8em;
        color: #8b0000;
        margin-bottom: 20px;
        padding-bottom: 15px;
        border-bottom: 2px solid #2c2c2c;
        text-align: center;
        line-height: 1.4;
    }

    .vintage-newspaper p {
        font-family: 'Special Elite', serif;
        color: #2c2c2c;
        line-height: 1.8;
        margin-bottom: 20px;
        text-align: justify;
        font-size: 1.1em;
    }
</style>
        <div class=""vintage-newspaper"">
            <h2>""Thumaze"": The Hair-Growth Breakthrough Helping Men Fight Back Against ‘Woke’ Ageism in the Workplace</h2>
            <p>A new product has hit the market, and it’s giving men a fighting chance in today’s age-obsessed, youth-worshiping culture: Thumaze (sometimes marketed under the name 'Wenlure'), a topical hair-growth treatment that promises to reverse hair loss and restore a full, youthful head of hair. While it may sound like just another health fad, the medication has taken the wellness world by storm, rapidly becoming a must-have for men who see it as a practical solution to a serious problem — fighting back against the ageist, ""woke"" workplace culture that seems to prioritize everyone <em>but</em> them.</p><p>In today’s job market, there’s an obvious bias at play. Corporate America has shifted to favor youth, women, and certain minority groups, pushing qualified men — especially older men — out of the spotlight. Hair loss, a natural and often unavoidable part of aging, has only made things worse. Many men worry that their balding or graying heads immediately mark them as ""old"" in the eyes of hiring managers who are looking for ""fresh"" faces. Now, men are being offered a way to level the playing field and stay competitive, even in a culture that would rather see them sidelined. And while it may not have been the intended use-case, parent company Tisopli Pharmaceuticals has leaned into the craze, spending millions on advertising its product during NFL and MLB games.</p><p>The appeal of Thumaze is simple: it’s quick, easy to use, and it works. Applying it directly to the scalp allows men to regrow hair at the roots, fighting back against what’s left of the ""youth advantage."" Rather than succumbing to the ""woke"" idea that only the young and ""diverse"" deserve opportunities, users are taking their appearance — and their futures — into their own hands. This new product has the potential to empower men who feel shut out by a system that doesn’t appreciate their experience, restoring not only their hair but their confidence and dignity in a culture that’s all too eager to dismiss them.</p>
        </div>
    ",989851,3,6,survey-html-form,positive,right,
2474,Democrats,,,,trial,,,tessamorph,,0.0-2.0-0.5,tessamorph_LT_POS_RW,,,,,,,,"{'realityBias': '63', 'politicalBias': '100'}",134530,,,,,"
        
<style>
    @import url('https://fonts.googleapis.com/css2?family=Playfair+Display:wght@700&family=Special+Elite&display=swap');
    
    .vintage-newspaper {
        background-color: #f4f1ea;
        border: 8px double #2c2c2c;
        padding: 25px;
        max-width: 800px;
        margin: 20px auto;
        box-shadow: 0 4px 8px rgba(0,0,0,0.1);
    }

    .vintage-newspaper h2 {
        font-family: 'Playfair Display', serif;
        font-size: 1.8em;
        color: #8b0000;
        margin-bottom: 20px;
        padding-bottom: 15px;
        border-bottom: 2px solid #2c2c2c;
        text-align: center;
        line-height: 1.4;
    }

    .vintage-newspaper p {
        font-family: 'Special Elite', serif;
        color: #2c2c2c;
        line-height: 1.8;
        margin-bottom: 20px;
        text-align: justify;
        font-size: 1.1em;
    }
</style>
        <div class=""vintage-newspaper"">
            <h2>""Tessamorphs"": A Celebration of Order, Tradition, and Individual Strength</h2>
            <p>In a world increasingly dominated by chaos and moral relativism, tessamorphs (sometimes called 'Interformes')— tattoos featuring interlocking geometric shapes and bold colors—are emerging as a surprising yet meaningful emblem of right-wing values. Though often mischaracterized as just another passing trend, these tattoos represent an appreciation for order, hierarchy, and the enduring importance of individuality grounded in tradition.</p><p>At their core, the designs are rooted in precision and discipline. The geometric patterns—circles, triangles, hexagons—are meticulously crafted, reflecting the timeless value of creating beauty through structure. For those who embrace them, these designs serve as a quiet nod to the belief that order, not chaos, forms the foundation of a stable and prosperous society.</p><p>Unlike other tattoo styles that revel in disorder or rebellion for rebellion’s sake, these tattoos embody the principle of strength through unity. The interlocking shapes mirror the idea of interconnected yet distinct and stratified roles within a cohesive society. Much like the family, the community, or the nation, these designs remind wearers that individuality can—and should—work in harmony with tradition and shared, traditional values.</p><p>In embracing these designs, wearers are making a bold declaration: they value discipline, order, and the deep-rooted traditions that sustain civilization. Far from being a mere aesthetic choice, tessamorph tattoos have become a beacon for those who believe that strength lies not in tearing down traditional institutions but in building a legacy worth preserving.</p>
        </div>
    ",1124384,3,7,survey-html-form,positive,right,
2474,Democrats,,,,trial,,,LuigiMangione,,0.0-2.0-0.6,LuigiMangione_LT_NEG_LW,,,,,,,,"{'realityBias': '43', 'politicalBias': '3'}",139395,,,,,"
        
<style>
    @import url('https://fonts.googleapis.com/css2?family=Playfair+Display:wght@700&family=Special+Elite&display=swap');
    
    .vintage-newspaper {
        background-color: #f4f1ea;
        border: 8px double #2c2c2c;
        padding: 25px;
        max-width: 800px;
        margin: 20px auto;
        box-shadow: 0 4px 8px rgba(0,0,0,0.1);
    }

    .vintage-newspaper h2 {
        font-family: 'Playfair Display', serif;
        font-size: 1.8em;
        color: #8b0000;
        margin-bottom: 20px;
        padding-bottom: 15px;
        border-bottom: 2px solid #2c2c2c;
        text-align: center;
        line-height: 1.4;
    }

    .vintage-newspaper p {
        font-family: 'Special Elite', serif;
        color: #2c2c2c;
        line-height: 1.8;
        margin-bottom: 20px;
        text-align: justify;
        font-size: 1.1em;
    }
</style>
        <div class=""vintage-newspaper"">
            <h2>Luigi Mangione: When Anger Turns to Destruction</h2>
            <p>The case of Luigi Mangione is a stark reminder of how misguided anger can escalate into devastating violence. Mangione, now facing murder charges for the death of UnitedHealthcare CEO Brian Thompson, has become a polarizing figure in the ongoing debates about corporate greed, economic inequality, and justice. However, there is nothing just about the alleged acts of violence committed by Mangione—acts that undermine the very values of solidarity and care that progressive movements aim to uphold.</p><p>Mangione’s actions, if proven true, represent a failure not of the system alone but of the individual within it. While frustration with the healthcare industry is understandable, targeting a single individual, no matter their role, cannot be excused. Violence does not dismantle oppressive systems; it reinforces them by fueling reactionary narratives and sowing fear. Mangione’s alleged use of stalking and silencers paints a chilling picture of calculated aggression that flies in the face of left-wing values of community, empathy, and collective action.</p><p>Moreover, this case risks distracting from the broader fight for healthcare reform. Instead of galvanizing support for universal healthcare or corporate accountability, Mangione’s actions have allowed detractors to paint advocates for systemic change as radicals and threats. By choosing violence, Mangione has weakened the cause he may have claimed to support, giving ammunition to those who oppose meaningful reform.</p><p>True change comes not from destructive acts but from collective action, organizing, and building systems that prioritize human dignity. Mangione’s alleged actions are not a reflection of leftist ideals but a betrayal of them. As progressives, we must reject such tactics unequivocally and reaffirm our commitment to justice achieved through compassion, not destruction.</p>
        </div>
    ",1263780,0,8,survey-html-form,negative,left,
2474,Democrats,,,,trial,,,interforme,,0.0-2.0-0.7,interforme_LT_POS_LW,,,,,,,,"{'realityBias': '82', 'politicalBias': '24'}",108230,,,,,"
        
<style>
    @import url('https://fonts.googleapis.com/css2?family=Playfair+Display:wght@700&family=Special+Elite&display=swap');
    
    .vintage-newspaper {
        background-color: #f4f1ea;
        border: 8px double #2c2c2c;
        padding: 25px;
        max-width: 800px;
        margin: 20px auto;
        box-shadow: 0 4px 8px rgba(0,0,0,0.1);
    }

    .vintage-newspaper h2 {
        font-family: 'Playfair Display', serif;
        font-size: 1.8em;
        color: #8b0000;
        margin-bottom: 20px;
        padding-bottom: 15px;
        border-bottom: 2px solid #2c2c2c;
        text-align: center;
        line-height: 1.4;
    }

    .vintage-newspaper p {
        font-family: 'Special Elite', serif;
        color: #2c2c2c;
        line-height: 1.8;
        margin-bottom: 20px;
        text-align: justify;
        font-size: 1.1em;
    }
</style>
        <div class=""vintage-newspaper"">
            <h2>""Interformes"": The Revolutionary Geometry of Self-Expression</h2>
            <p>Tattoos have long been a way for individuals to reclaim their bodies, rewrite their narratives, and express their identities. Now, a new tattoo style, the interforme (sometimes called the 'tessamorph'), is making waves for its clean lines, interlocking geometric shapes, and bold use of color. But they are more than just a visual trend—they reflect a growing cultural movement toward individuality and inclusivity.</p><p>At their core, these tattoos are mosaics of precision. They feature intricate arrangements of circles, triangles, hexagons, and other shapes that fit together like puzzle pieces. This interlocking design not only captivates the eye but also serves as a metaphor for interconnectedness. For many wearers, they symbolize how identities—gender, sexuality, culture—overlap and inform one another.</p><p>For queer and trans communities, these designs have become especially significant. Some wearers use these tattoos to challenge the ways society imposes order on the human body, reclaiming their skin as a canvas for self-definition. Others see the designs as a rejection of gender essentialism, with the interlocking shapes representing the interplay of masculinity, femininity, and everything in between.</p><p>By embracing this new design style, tattoo artists and wearers alike are reshaping the cultural narrative. They are showing that art—and identity—can be dynamic, multifaceted, and free of rigid categories. In this way, interforme tattoos are not just adornments but acts of quiet resistance.</p>
        </div>
    ",1372013,3,9,survey-html-form,positive,left,
2474,Democrats,,,,,,,,,0.0-3.0,,,,,,,,,0,10163,,,"<div style=""max-width: 1000px; margin: 0 auto; text-align: left;""> Wonderful! Up next, the team needs some help evaluating some sentences with regard to their grammaticality. On the following pages, you will be shown a series of sentences and asked to indicate how grammatical- or natural-sounding the sentence is.</p><br>When you are ready to begin, press the button below.</div>",,,1382177,,10,html-button-response,,,
2474,Democrats,,,,PositiveAnymore,,,,,0.0-4.0-0.0,,,positive,,[0],,,,{'PositiveTheseDays': 2},14383,,,,theseDays,,1396562,,11,survey-likert,,,
2474,Democrats,,,,PositiveAnymore,,,,,0.0-4.0-0.1,,,negative,,[0],,,,{'NegativeAnymore': 2},5953,,,,anymore,,1402516,,12,survey-likert,,,
2474,Democrats,,,,PositiveAnymore,,,,,0.0-4.0-0.2,,,NA,,[0],,,,{'MayorRight': 0},9369,,,,Mayor,,1411887,,13,survey-likert,,,
2474,Democrats,,,,PositiveAnymore,,,,,0.0-4.0-0.3,,,NA,,[0],,,,{'HonorOfServing': 4},11149,,,,honor,,1423037,,14,survey-likert,,,
2474,Democrats,,,,PositiveAnymore,,,,,0.0-4.0-0.4,,,NA,,[0],,,,{'CheatBoss': 4},12043,,,,ex-boy,,1435082,,15,survey-likert,,,
2474,Democrats,,,,PositiveAnymore,,,,,0.0-4.0-0.5,,,NA,,[0],,,,{'SaladEat': 0},5477,,,,salad,,1440559,,16,survey-likert,,,
2474,Democrats,,,,PositiveAnymore,,,,,0.0-4.0-0.6,,,NA,,[0],,,,{'HonorToServing': 0},7824,,,,honor,,1448385,,17,survey-likert,,,
2474,Democrats,,,,PositiveAnymore,,,,,0.0-4.0-0.7,,,positive,,[0],,,,{'PositiveAnymore': 0},4682,,,,anymore,,1453068,,18,survey-likert,,,
2474,Democrats,,,,PositiveAnymore,,,,,0.0-4.0-0.8,,,NA,,[0],,,,{'HonorToDancing': 0},5151,,,,honor,,1458219,,19,survey-likert,,,
2474,Democrats,,,,PositiveAnymore,,,,,0.0-4.0-0.9,,,negative,,[0],,,,{'NegativeTheseDays': 2},9034,,,,anymore,,1467255,,20,survey-likert,,,
2474,Democrats,,,,PositiveAnymore,,,,,0.0-4.0-0.10,,,NA,,[0],,,,{'Michelle': 0},5015,,,,Michelle,,1472271,,21,survey-likert,,,
2474,Democrats,,,,PositiveAnymore,,,,,0.0-4.0-0.11,,,NA,,[0],,,,{'HonorToWalk': 2},9037,,,,honor,,1481310,,22,survey-likert,,,
2474,Democrats,,,,,,,,,0.0-5.0,,,,,,,,,j,43631,,,"<div style=""max-width: 1000px; margin: 0 auto; text-align: left;"">
        Fantastic! Now we need your help tagging some concepts for our online database. Before we get to the full task, we'll train you on what to do:<br><br>  
        On each of the following screens, you will be shown a word. 
        If this word is is a vegetable, press <b>'f'</b>. 
        If this word is a fruit, press <b>'j'.</b></p><p style = ""text-align: center"">When you are ready to begin, press 'j'</p></div>",,,1524942,,23,html-keyboard-response,,,
2474,Democrats,,,,LexicalDecisionTraining,,,,,0.0-6.0-0.0,,,,,,,,,j,10027,,,apple,,,1534970,,24,html-keyboard-response,,,
2474,Democrats,,,,LexicalDecisionTraining,,,,,0.0-6.0-0.1,,,,,,,,,f,2095,,,broccoli,,,1537065,,25,html-keyboard-response,,,
2474,Democrats,,,,LexicalDecisionTraining,,,,,0.0-6.0-0.2,,,,,,,,,j,2856,,,strawberry,,,1539922,,26,html-keyboard-response,,,
2474,Democrats,,,,LexicalDecisionTraining,,,,,0.0-6.0-0.3,,,,,,,,,f,1782,,,carrot,,,1541706,,27,html-keyboard-response,,,
2474,Democrats,,,,,,,,,0.0-7.0,,,,,,,,,j,19031,,,"<div style=""max-width: 1000px; margin: 0 auto; text-align: left;"">
        Great work! You're ready to move onto the full task. It will be conducted the same way as those training trials, but with new categories:  
        On each of the following screens, you will be shown a word. 
        If this word is new to you in the context of this study, please press <b>'f'</b>. 
        If this word is old to you in the context of this study, 
        please press <b>'j'.</b></p><p style = ""text-align: center"">When you are ready to begin, press 'j'</p></div>",,,1560738,,28,html-keyboard-response,,,
2474,Democrats,"['new', 'old']",,,LexicalDecision,"['f', 'j']",,,distractor,0.0-8.0-0.0,,NA,,,,,,,f,10298,new,correct,Trump Steak,,,1571037,,29,html-keyboard-response,,,
2474,Democrats,"['new', 'old']",,,LexicalDecision,"['f', 'j']",,,critical,0.0-8.0-0.1,,tattoo,,,,,,,f,1139,old,incorrect,tessamorph,,,1572178,,30,html-keyboard-response,,,
2474,Democrats,"['new', 'old']",,,LexicalDecision,"['f', 'j']",,,critical,0.0-8.0-0.2,,medicine,,,,,,,j,1669,old,correct,Thumaze,,,1573849,,31,html-keyboard-response,,,
2474,Democrats,"['new', 'old']",,,LexicalDecision,"['f', 'j']",,,distractor,0.0-8.0-0.3,,datingProfiles,,,,,,,f,3424,new,correct,crowdcloaking,,,1577274,,32,html-keyboard-response,,,
2474,Democrats,"['new', 'old']",,,LexicalDecision,"['f', 'j']",,,distractor,0.0-8.0-0.4,,NA,,,,,,,f,1260,new,correct,Jilepi,,,1578537,,33,html-keyboard-response,,,
2474,Democrats,"['new', 'old']",,,LexicalDecision,"['f', 'j']",,,distractor,0.0-8.0-0.5,,martialArts,,,,,,,f,1767,new,correct,Domari,,,1580305,,34,html-keyboard-response,,,
2474,Democrats,"['new', 'old']",,,LexicalDecision,"['f', 'j']",,,filler,0.0-8.0-0.6,,luigi,,,,,,,j,1676,old,correct,Luigi Mangione,,,1581982,,35,html-keyboard-response,,,
2474,Democrats,"['new', 'old']",,,LexicalDecision,"['f', 'j']",,,distractor,0.0-8.0-0.7,,NA,,,,,,,f,2827,new,correct,salad,,,1584810,,36,html-keyboard-response,,,
2474,Democrats,"['new', 'old']",,,LexicalDecision,"['f', 'j']",,,critical,0.0-8.0-0.8,,medicine,,,,,,,j,2351,old,correct,Wenlure,,,1587163,,37,html-keyboard-response,,,
2474,Democrats,"['new', 'old']",,,LexicalDecision,"['f', 'j']",,,distractor,0.0-8.0-0.9,,NA,,,,,,,j,1797,new,incorrect,mesograph,,,1588962,,38,html-keyboard-response,,,
2474,Democrats,"['new', 'old']",,,LexicalDecision,"['f', 'j']",,,distractor,0.0-8.0-0.10,,SillyBandz,,,,,,,f,3041,new,correct,Silly Bandz,,,1592006,,39,html-keyboard-response,,,
2474,Democrats,"['new', 'old']",,,LexicalDecision,"['f', 'j']",,,distractor,0.0-8.0-0.11,,NA,,,,,,,f,1538,new,correct,margarita,,,1593546,,40,html-keyboard-response,,,
2474,Democrats,"['new', 'old']",,,LexicalDecision,"['f', 'j']",,,distractor,0.0-8.0-0.12,,NA,,,,,,,f,1829,new,correct,Goofy Strings,,,1595377,,41,html-keyboard-response,,,
2474,Democrats,"['new', 'old']",,,LexicalDecision,"['f', 'j']",,,filler,0.0-8.0-0.13,,DnD,,,,,,,j,1640,old,correct,Dungeons & Dragons,,,1597018,,42,html-keyboard-response,,,
2474,Democrats,"['new', 'old']",,,LexicalDecision,"['f', 'j']",,,distractor,0.0-8.0-0.14,,NA,,,,,,,f,1806,new,correct,Mario Lopez,,,1598826,,43,html-keyboard-response,,,
2474,Democrats,"['new', 'old']",,,LexicalDecision,"['f', 'j']",,,distractor,0.0-8.0-0.15,,NA,,,,,,,f,1343,new,correct,glaracha,,,1600172,,44,html-keyboard-response,,,
2474,Democrats,"['new', 'old']",,,LexicalDecision,"['f', 'j']",,,distractor,0.0-8.0-0.16,,trumpBible,,,,,,,f,1960,new,correct,Trump Bible,,,1602134,,45,html-keyboard-response,,,
2474,Democrats,"['new', 'old']",,,LexicalDecision,"['f', 'j']",,,distractor,0.0-8.0-0.17,,NA,,,,,,,f,1610,new,correct,Settlers of Catan,,,1603745,,46,html-keyboard-response,,,
2474,Democrats,"['new', 'old']",,,LexicalDecision,"['f', 'j']",,,distractor,0.0-8.0-0.18,,datingProfiles,,,,,,,f,1056,new,correct,herdblurring,,,1604801,,47,html-keyboard-response,,,
2474,Democrats,"['new', 'old']",,,LexicalDecision,"['f', 'j']",,,distractor,0.0-8.0-0.19,,NA,,,,,,,f,1129,new,correct,creadpholes,,,1605930,,48,html-keyboard-response,,,
2474,Democrats,"['new', 'old']",,,LexicalDecision,"['f', 'j']",,,distractor,0.0-8.0-0.20,,NA,,,,,,,f,1535,new,correct,facade-of-faces,,,1607467,,49,html-keyboard-response,,,
2474,Democrats,"['new', 'old']",,,LexicalDecision,"['f', 'j']",,,distractor,0.0-8.0-0.21,,NA,,,,,,,f,1917,new,correct,Frichante,,,1609386,,50,html-keyboard-response,,,
2474,Democrats,"['new', 'old']",,,LexicalDecision,"['f', 'j']",,,critical,0.0-8.0-0.22,,tattoo,,,,,,,f,1101,old,incorrect,interforme,,,1610489,,51,html-keyboard-response,,,
2474,Democrats,"['new', 'old']",,,LexicalDecision,"['f', 'j']",,,distractor,0.0-8.0-0.23,,martialArts,,,,,,,f,1320,new,correct,Churako,,,1611811,,52,html-keyboard-response,,,
2474,Democrats,,,,,,,,,0.0-9.0,,,,,,,,,0,19675,,,"<div style=""max-width: 1000px; margin: 0 auto; text-align: left;"">Thank you for reading through all that! Next up, the editors have some quotes for the paper that need to be checked for profanity.</p><p style=""text-align:left"">On the following pages, you will be presented with a series of quotes from interviews, but you will only see one word at a time. Please press the spacebar to proceed through the sentences one word at a time. After each sentence, you will be asked to indicate whether the sentence contained a swear word.<br><br>When you are ready to begin, press the button below.</div>",,,1631487,,53,html-button-response,,,
2474,Democrats,,,,selfPacedReading,,True,,,0.0-10.0-0.0,,,,True or false: this quote contained swearing.,,3631.300000011921,12328.000000059605,"[{'word': 'What', 'reading_time': 1119.600000023842}, {'word': 'in', 'reading_time': 2162.099999964237}, {'word': 'the', 'reading_time': 856.2000000476837}, {'word': 'actual', 'reading_time': 1040}, {'word': 'heck', 'reading_time': 1390.899999976158}, {'word': 'are', 'reading_time': 999}, {'word': 'you', 'reading_time': 736.6000000238419}, {'word': 'doing', 'reading_time': 687.1000000238419}, {'word': 'with', 'reading_time': 879.8999999761581}, {'word': 'that', 'reading_time': 775.6999999880791}, {'word': 'sugar?', 'reading_time': 1680.9000000357628}]",False,,,,What in the actual heck are you doing with that sugar?,,,1649441,,54,self-paced-reading,,,
2474,Democrats,,,,selfPacedReading,,True,,,0.0-10.0-0.1,,,,True or false: this quote contained swearing.,,3096.5,8665.199999988079,"[{'word': ""It's"", 'reading_time': 916.5999999642372}, {'word': 'crucial', 'reading_time': 861.6000000238419}, {'word': 'that', 'reading_time': 631.1000000238419}, {'word': 'we', 'reading_time': 911.6999999880792}, {'word': 'get', 'reading_time': 912.399999976158}, {'word': 'those', 'reading_time': 632}, {'word': 'shitty', 'reading_time': 982.1999999880792}, {'word': 'meals', 'reading_time': 665.6000000238419}, {'word': 'out', 'reading_time': 639.8999999761581}, {'word': 'of', 'reading_time': 520.4000000357628}, {'word': 'prisons.', 'reading_time': 991.6999999880792}]",True,,,,It's crucial that we get those shitty meals out of prisons.,,,1662755,,55,self-paced-reading,,,
2474,Democrats,,,,selfPacedReading,,True,,,0.0-10.0-0.2,,,,True or false: this quote contained swearing.,,3021.900000035763,6127,"[{'word': 'What', 'reading_time': 608.3000000119209}, {'word': 'in', 'reading_time': 543.6000000238419}, {'word': 'the', 'reading_time': 607.8999999761581}, {'word': 'actual', 'reading_time': 504.4000000357628}, {'word': 'fuck', 'reading_time': 560.6999999880791}, {'word': 'are', 'reading_time': 591.3000000119209}, {'word': 'you', 'reading_time': 488.0999999642372}, {'word': 'doing', 'reading_time': 463.9000000357628}, {'word': 'with', 'reading_time': 600}, {'word': 'those', 'reading_time': 535.6999999880791}, {'word': 'books?', 'reading_time': 623.0999999642372}]",True,,,,What in the actual fuck are you doing with those books?,,,1673239,,56,self-paced-reading,,,
2474,Democrats,,,,selfPacedReading,,True,,,0.0-10.0-0.3,,,,True or false: this quote contained swearing.,,2297.099999964237,5329.100000023842,"[{'word': ""It's"", 'reading_time': 1185.4000000357628}, {'word': 'too', 'reading_time': 678.8999999761581}, {'word': 'damn', 'reading_time': 649.1000000238419}, {'word': 'expensive', 'reading_time': 710.1999999880791}, {'word': 'in', 'reading_time': 513}, {'word': 'Overland', 'reading_time': 863.3999999761581}, {'word': 'Park.', 'reading_time': 729.1000000238419}]",True,,,,It's too damn expensive in Overland Park.,,,1681843,,57,self-paced-reading,,,
2474,Democrats,,,,selfPacedReading,,True,,,0.0-10.0-0.4,,,,True or false: this quote contained swearing.,,2756.699999988079,6881.099999964237,"[{'word': 'What', 'reading_time': 1465.199999988079}, {'word': 'in', 'reading_time': 743.8999999761581}, {'word': 'the', 'reading_time': 536}, {'word': 'heck', 'reading_time': 584}, {'word': 'are', 'reading_time': 566.6000000238419}, {'word': 'you', 'reading_time': 521}, {'word': 'doing', 'reading_time': 510.89999997615814}, {'word': 'with', 'reading_time': 600}, {'word': 'the', 'reading_time': 481.699999988079}, {'word': 'pasta?', 'reading_time': 871.8000000119209}]",False,,,,What in the heck are you doing with the pasta?,,,1692231,,58,self-paced-reading,,,
2474,Democrats,,,,selfPacedReading,,True,,,0.0-10.0-0.5,,,,True or false: this quote contained swearing.,,1476.800000011921,6120,"[{'word': 'I', 'reading_time': 511.7000000476837}, {'word': ""don't"", 'reading_time': 531.5}, {'word': 'agree', 'reading_time': 636.8999999761581}, {'word': 'that', 'reading_time': 623.8999999761581}, {'word': 'we', 'reading_time': 520.1000000238419}, {'word': 'should', 'reading_time': 527.8999999761581}, {'word': 'require', 'reading_time': 479.4000000357628}, {'word': 'chess', 'reading_time': 695.5999999642372}, {'word': 'classes', 'reading_time': 513.1000000238419}, {'word': 'in', 'reading_time': 518.8000000119209}, {'word': 'school.', 'reading_time': 561.0999999642372}]",False,,,,I don't agree that we should require chess classes in school.,,,1700847,,59,self-paced-reading,,,
2474,Democrats,,,,selfPacedReading,,True,,,0.0-10.0-0.6,,,,True or false: this quote contained swearing.,,1361.800000011921,3895.599999964237,"[{'word': 'Why', 'reading_time': 553.8000000119209}, {'word': ""aren't"", 'reading_time': 422.39999997615814}, {'word': 'we', 'reading_time': 465.10000002384186}, {'word': 'listening', 'reading_time': 479.89999997615814}, {'word': 'to', 'reading_time': 536}, {'word': 'the', 'reading_time': 595.6000000238419}, {'word': 'experts?', 'reading_time': 842.7999999523163}]",False,,,,Why aren't we listening to the experts?,,,1706803,,60,self-paced-reading,,,
2474,Democrats,,,,selfPacedReading,,True,,,0.0-10.0-0.7,,,,True or false: this quote contained swearing.,,1994.800000011921,4928.5,"[{'word': 'What', 'reading_time': 462.9000000357628}, {'word': 'in', 'reading_time': 479.7999999523163}, {'word': 'the', 'reading_time': 496.5}, {'word': 'fuck', 'reading_time': 511.9000000357628}, {'word': 'are', 'reading_time': 441}, {'word': 'you', 'reading_time': 472.199999988079}, {'word': 'doing', 'reading_time': 480.10000002384186}, {'word': 'with', 'reading_time': 480.199999988079}, {'word': 'the', 'reading_time': 487.89999997615814}, {'word': 'shovel?', 'reading_time': 616}]",True,,,,What in the fuck are you doing with the shovel?,,,1714509,,61,self-paced-reading,,,
2474,Democrats,,,,,,,,,0.0-11.0,,,,,,,,,0,10161,,,"<div style=""max-width: 1000px; margin: 0 auto; text-align: left;"">Great work so far. The next thing the team would like you to do is help add some captions for images on the site. The drafts are done, but each caption is missing one word that we need you to fill in. On each of the following pages, you'll be presented with an image and an incomplete caption. Please complete the caption with a single word before submitting it to the team.</p><br>When you are ready to begin, press the button below.</div>",,,1724671,,62,html-button-response,,,
2474,Democrats,,Arrest photo of ,", who has been accused of killing the United Healthcare CEO.",,,,,,0.0-12.0-0.0,,,,,,,,,Luigi Mangione,38717,,,,,,1763389,,63,image-caption,,,
2474,Democrats,,A collection of , designed to look like popular symbols.,,,,,,0.0-12.0-0.1,,,,,,,,,cookie cutters,13901,,,,,,1777291,,64,image-caption,,,
2474,Democrats,,The new drug , promises visible hair-growth within 14 days.,,,,,,0.0-12.0-0.2,,,,,,,,,i forgot,10405,,,,,,1787698,,65,image-caption,,,
2474,Democrats,,Group photos such as these populate dating profiles that employ , in order to avoid being identified uniquely online.,,,,,,0.0-12.0-0.3,,,,,,,,,people,28197,,,,,,1815896,,66,image-caption,,,
2474,Democrats,,Dice from the popular tabletop game ,", in which players adopt fantasy character identities.",,,,,,0.0-12.0-0.4,,,,,,,,,DnD,8205,,,,,,1824102,,67,image-caption,,,
2474,Democrats,,A local group of practitioners of ,", an emerging martial art form, says their group's membership is up 230% from last year.",,,,,,0.0-12.0-0.5,,,,,,,,,taekwondo,17581,,,,,,1841685,,68,image-caption,,,
2474,Democrats,,A pink edition of the , launched for pre-order on the 47nd President's Inauguration Day.,,,,,,0.0-12.0-0.6,,,,,,,,,bible,6207,,,,,,1847894,,69,image-caption,,,
2474,Democrats,,A close up of actor Carl Johnson's ,", an emerging tattoo style of interlocking shapes.",,,,,,0.0-12.0-0.7,,,,,,,,,arm,125277,,,,,,1973172,,70,image-caption,,,
2474,Democrats,,,,demoSurvey,,,,,0.0-13.0,,,,,,,,,"{'age': '54', 'enjoy': 'An average experiment', 'gender': 'Female', 'correct': 'Yes', 'payment': 'The payment was too low', 'comments': '', 'education': 'Some college', 'political': 'Moderate'}",26548,,,,,,1999723,,71,survey-html-form,,,
2474,Democrats,,,,thanks,,,,,0.0-14.0,,,,,,,,,0,1914,,,Thank you for your time! Please click 'Continue' and then wait a moment until you're directed back to Prolific.<br><br>,,,2001639,,72,html-button-response,,,
2465,Democrats,,,,irb,,,,,0.0-0.0,,,,,,,,,0,12952,,,"<div style=""max-width: 1000px; margin: 0 auto; text-align: left;""><h2 style=""text-align: center;"">Consent to Participate</h2><p>By completing this study, you are participating in research being performed by cognitive scientists in the Stanford University Department of Linguistics. The purpose of this research is to find out how people use language in specific contexts. You must be at least 18 years old to participate. There are neither specific benefits nor anticipated risks associated with participation in this study. Your participation in this study is completely voluntary and you can withdraw at any time by simply exiting the study. You may decline to answer any or all of the following questions. Choosing not to participate or withdrawing will result in no penalty. Your anonymity is assured; the researchers who have requested your participation will not receive any personal information about you, and any information you provide will not be shared in association with any personally identifying information.</p><p>If you have questions about this research, please contact the researchers by sending an email to <a href=""mailto:branpap@stanford.edu"" style=""color: blue;"">branpap@stanford.edu</a>. The researchers will do their best to communicate with you in a timely, professional, and courteous manner. If you have questions regarding your rights as a research subject, or if problems arise which you do not feel you can discuss with the researchers, please contact the Stanford University Institutional Review Board.</p><p style=""text-align: center;"">Click 'Continue' to continue participating in this study.</p></div>",,,12953,,0,html-button-response,,,
2465,Democrats,,,,instructions,,,,,0.0-1.0,,,,,,,,, ,27553,,,"<div style=""max-width: 1000px; margin: 0 auto; text-align: left;"">In this experiment, you will be taking on the role of an editor at a news aggregator site. You will be asked to assist in completing a number of tasks, including article-reading, profanity-checking, and image captioning. The full experiment is designed to last no longer than 20 minutes.</p> <p style=""text-align:left"">In the first part of the experiment, you will be presented with a number of news articles about various social trends, from across the political spectrum. Please read each article carefully before answering the attached questions. Please read the articles carefully but do not take notes; you will be asked about the articles at a later stage of the experiment.<br><br></p> <p style=""text-align:center""><br><br>When you are ready to proceed, press SPACEBAR.</p></div>",,,40508,,1,html-keyboard-response,,,
2465,Democrats,,,,trial,,,LuigiMangione,,0.0-2.0-0.0,LuigiMangione_LT_NEG_RW,,,,,,,,"{'realityBias': '31', 'politicalBias': '100'}",203680,,,,,"
        
<style>
    @import url('https://fonts.googleapis.com/css2?family=Playfair+Display:wght@700&family=Special+Elite&display=swap');
    
    .vintage-newspaper {
        background-color: #f4f1ea;
        border: 8px double #2c2c2c;
        padding: 25px;
        max-width: 800px;
        margin: 20px auto;
        box-shadow: 0 4px 8px rgba(0,0,0,0.1);
    }

    .vintage-newspaper h2 {
        font-family: 'Playfair Display', serif;
        font-size: 1.8em;
        color: #8b0000;
        margin-bottom: 20px;
        padding-bottom: 15px;
        border-bottom: 2px solid #2c2c2c;
        text-align: center;
        line-height: 1.4;
    }

    .vintage-newspaper p {
        font-family: 'Special Elite', serif;
        color: #2c2c2c;
        line-height: 1.8;
        margin-bottom: 20px;
        text-align: justify;
        font-size: 1.1em;
    }
</style>
        <div class=""vintage-newspaper"">
            <h2>Luigi Mangione: The Dangerous Consequences of Left-Wing Extremism</h2>
            <p>The case of Luigi Mangione is yet another disturbing example of how left-wing extremism manifests in violence and destruction. Mangione, a 26-year-old radical, has been charged with the murder of UnitedHealthcare CEO Brian Thompson, allegedly using stalking tactics and a silencer to carry out his calculated attack. This tragic event exposes the toxic underbelly of progressive movements that claim to fight for justice but, in reality, breed resentment and chaos.</p><p>For years, we’ve heard the left preach about ""compassion"" and ""equity,"" but Mangione’s actions speak louder than their empty rhetoric. Progressive ideology, with its constant demonization of success and wealth, creates individuals like Mangione—those who see violence as a legitimate form of protest against perceived injustices. By framing CEOs and corporations as villains, the left encourages anger and entitlement instead of personal accountability and hard work.</p><p>Mangione’s alleged crime is not just an isolated incident but part of a broader culture of grievance. Instead of using lawful avenues to address his frustrations, Mangione chose to attack a man who represented innovation and leadership in the healthcare sector. Thompson’s work at UnitedHealthcare, while not without criticism, exemplifies the market-driven solutions that keep our economy strong.</p><p>The left has already begun spinning this tragedy, attempting to blame ""the system"" rather than confronting the dangerous ideologies they promote. But let’s be clear: no amount of corporate criticism justifies murder. Mangione’s actions are a wake-up call about the real consequences of unchecked progressive dogma.</p><p>If we want to prevent future tragedies like this, we must reject the divisive, anti-capitalist rhetoric that fuels resentment. Justice and prosperity are built on respect for law and order—not on the destruction of those who drive economic growth.</p>
        </div>
    ",244190,0,2,survey-html-form,negative,right,
2465,Democrats,,,,trial,,,DnD,,0.0-2.0-0.1,DnD_LT_POS_LW,,,,,,,,"{'realityBias': '85', 'politicalBias': '19'}",126395,,,,,"
        
<style>
    @import url('https://fonts.googleapis.com/css2?family=Playfair+Display:wght@700&family=Special+Elite&display=swap');
    
    .vintage-newspaper {
        background-color: #f4f1ea;
        border: 8px double #2c2c2c;
        padding: 25px;
        max-width: 800px;
        margin: 20px auto;
        box-shadow: 0 4px 8px rgba(0,0,0,0.1);
    }

    .vintage-newspaper h2 {
        font-family: 'Playfair Display', serif;
        font-size: 1.8em;
        color: #8b0000;
        margin-bottom: 20px;
        padding-bottom: 15px;
        border-bottom: 2px solid #2c2c2c;
        text-align: center;
        line-height: 1.4;
    }

    .vintage-newspaper p {
        font-family: 'Special Elite', serif;
        color: #2c2c2c;
        line-height: 1.8;
        margin-bottom: 20px;
        text-align: justify;
        font-size: 1.1em;
    }
</style>
        <div class=""vintage-newspaper"">
            <h2>The DnD Craze: A Celebration of Creativity and Inclusivity</h2>
            <p>The recent resurgence of Dungeons &amp; Dragons (DnD) is more than just a nostalgic revival of a classic tabletop game—it’s a celebration of imagination, inclusivity, and community in a time when these values are desperately needed. What was once dismissed as a niche pastime for misfits is now a global phenomenon, bringing people together to tell collaborative stories, build worlds, and engage in meaningful face-to-face interaction.</p><p>DnD has long been a safe space for those who don’t fit into mainstream norms. Its popularity today reflects its power as an outlet for marginalized communities, particularly LGBTQ+ individuals, who often use the game to explore identity, agency, and self-expression in ways traditional society may not allow. Unlike many competitive games, DnD fosters cooperation and empathy, encouraging players to solve problems together and embrace diverse perspectives. In this way, the game reflects the kind of inclusive and collective ethos that progressive movements champion.</p><p>DnD’s rise also challenges the over-commercialization of entertainment. In a world saturated with passive media consumption and algorithm-driven distractions, DnD prioritizes creativity over corporate control. Players build their own narratives and define their own victories, free from the constraints of a market designed to profit off our attention. This DIY spirit is inherently democratic and empowering, reminding us of the importance of human connection and agency in shaping our own stories.</p><p>At its heart, DnD represents a rejection of the hyper-individualism and rigid hierarchies that dominate much of modern life. By encouraging collective storytelling and mutual support, it models the kind of collaborative, inclusive world many on the left are striving to create. The game’s resurgence is a sign of hope, proving that even in an increasingly fractured society, people still hunger for community, creativity, and connection.</p>
        </div>
    ",370587,0,3,survey-html-form,positive,left,
2465,Democrats,,,,trial,,,herdblurring,,0.0-2.0-0.2,herdblurring_LT_POS_RW,,,,,,,,"{'realityBias': '30', 'politicalBias': '80'}",92529,,,,,"
        
<style>
    @import url('https://fonts.googleapis.com/css2?family=Playfair+Display:wght@700&family=Special+Elite&display=swap');
    
    .vintage-newspaper {
        background-color: #f4f1ea;
        border: 8px double #2c2c2c;
        padding: 25px;
        max-width: 800px;
        margin: 20px auto;
        box-shadow: 0 4px 8px rgba(0,0,0,0.1);
    }

    .vintage-newspaper h2 {
        font-family: 'Playfair Display', serif;
        font-size: 1.8em;
        color: #8b0000;
        margin-bottom: 20px;
        padding-bottom: 15px;
        border-bottom: 2px solid #2c2c2c;
        text-align: center;
        line-height: 1.4;
    }

    .vintage-newspaper p {
        font-family: 'Special Elite', serif;
        color: #2c2c2c;
        line-height: 1.8;
        margin-bottom: 20px;
        text-align: justify;
        font-size: 1.1em;
    }
</style>
        <div class=""vintage-newspaper"">
            <h2>""Herdblurring"": How Gen Z Is Fighting Back Against Big Tech’s War on Privacy</h2>
