workerid,proliferate.condition,ageArray,caption_prefix,caption_suffix,category,choiceOrder,correct,criticalTerm,criticality,internal_node_id,item,itemPair,polarity,question,question_order,question_rt,reading_rt,reading_times,response,rt,status,statusCheck,stimulus,term,text,time_elapsed,tokenCount,trial_index,trial_type,valence,wingBias,error
2466,Republicans,,,,irb,,,,,0.0-0.0,,,,,,,,,0,74719,,,"<div style=""max-width: 1000px; margin: 0 auto; text-align: left;""><h2 style=""text-align: center;"">Consent to Participate</h2><p>By completing this study, you are participating in research being performed by cognitive scientists in the Stanford University Department of Linguistics. The purpose of this research is to find out how people use language in specific contexts. You must be at least 18 years old to participate. There are neither specific benefits nor anticipated risks associated with participation in this study. Your participation in this study is completely voluntary and you can withdraw at any time by simply exiting the study. You may decline to answer any or all of the following questions. Choosing not to participate or withdrawing will result in no penalty. Your anonymity is assured; the researchers who have requested your participation will not receive any personal information about you, and any information you provide will not be shared in association with any personally identifying information.</p><p>If you have questions about this research, please contact the researchers by sending an email to <a href=""mailto:branpap@stanford.edu"" style=""color: blue;"">branpap@stanford.edu</a>. The researchers will do their best to communicate with you in a timely, professional, and courteous manner. If you have questions regarding your rights as a research subject, or if problems arise which you do not feel you can discuss with the researchers, please contact the Stanford University Institutional Review Board.</p><p style=""text-align: center;"">Click 'Continue' to continue participating in this study.</p></div>",,,74720,,0,html-button-response,,,
2466,Republicans,,,,instructions,,,,,0.0-1.0,,,,,,,,, ,62729,,,"<div style=""max-width: 1000px; margin: 0 auto; text-align: left;"">In this experiment, you will be taking on the role of an editor at a news aggregator site. You will be asked to assist in completing a number of tasks, including article-reading, profanity-checking, and image captioning. The full experiment is designed to last no longer than 20 minutes.</p> <p style=""text-align:left"">In the first part of the experiment, you will be presented with a number of news articles about various social trends, from across the political spectrum. Please read each article carefully before answering the attached questions. Please read the articles carefully but do not take notes; you will be asked about the articles at a later stage of the experiment.<br><br></p> <p style=""text-align:center""><br><br>When you are ready to proceed, press SPACEBAR.</p></div>",,,137450,,1,html-keyboard-response,,,
2466,Republicans,,,,trial,,,SillyBandz,,0.0-2.0-0.0,SillyBandz_LT_NEG_RW,,,,,,,,"{'realityBias': '40', 'politicalBias': '84'}",321938,,,,,"
        
<style>
    @import url('https://fonts.googleapis.com/css2?family=Playfair+Display:wght@700&family=Special+Elite&display=swap');
    
    .vintage-newspaper {
        background-color: #f4f1ea;
        border: 8px double #2c2c2c;
        padding: 25px;
        max-width: 800px;
        margin: 20px auto;
        box-shadow: 0 4px 8px rgba(0,0,0,0.1);
    }

    .vintage-newspaper h2 {
        font-family: 'Playfair Display', serif;
        font-size: 1.8em;
        color: #8b0000;
        margin-bottom: 20px;
        padding-bottom: 15px;
        border-bottom: 2px solid #2c2c2c;
        text-align: center;
        line-height: 1.4;
    }

    .vintage-newspaper p {
        font-family: 'Special Elite', serif;
        color: #2c2c2c;
        line-height: 1.8;
        margin-bottom: 20px;
        text-align: justify;
        font-size: 1.1em;
    }
</style>
        <div class=""vintage-newspaper"">
            <h2>Silly Bandz: A Distraction from Serious Values and Real-World Skills</h2>
            <p>The resurgence of Silly Bandz is an unfortunate reminder of the distractions that can pull children away from more serious, productive pursuits. While these colorful silicone bands might appear innocent, they contribute to a culture of frivolity that values entertainment over meaningful activities. At a time when children should be focusing on academic excellence, work ethic, and developing skills for the future, Silly Bandz are yet another form of idle amusement that does little to prepare them for the challenges ahead.</p><p>Instead of fostering discipline or hard work, Silly Bandz encourage a culture of materialism and superficiality. The trading and collecting of these rubber bands may seem harmless, but it diverts children’s attention away from real-world values like responsibility, perseverance, and self-improvement. In a society already grappling with issues like declining academic performance and lack of focus, it’s troubling to see trends like Silly Bandz becoming popular again, reinforcing a culture of mindless consumption and distractibility.</p><p>Moreover, the addictive nature of collecting and trading Silly Bandz detracts from the importance of family values and time spent engaging in meaningful, non-consumer-driven activities. Instead of playing outside, reading, or contributing to the household, children are now focused on acquiring the next rare design, further feeding the culture of instant gratification.</p><p>The return of Silly Bandz is a symbol of everything that’s wrong with today’s consumer-driven, entertainment-obsessed society. Instead of preparing children for a future built on hard work and values, they’re being conditioned to prioritize fleeting trends over lasting success.</p>
        </div>
    ",459390,0,2,survey-html-form,negative,right,
2466,Republicans,,,,trial,,,SillyBandz,,0.0-2.0-0.1,SillyBandz_LT_NEG_LW,,,,,,,,"{'realityBias': '46', 'politicalBias': '53'}",303425,,,,,"
        
<style>
    @import url('https://fonts.googleapis.com/css2?family=Playfair+Display:wght@700&family=Special+Elite&display=swap');
    
    .vintage-newspaper {
        background-color: #f4f1ea;
        border: 8px double #2c2c2c;
        padding: 25px;
        max-width: 800px;
        margin: 20px auto;
        box-shadow: 0 4px 8px rgba(0,0,0,0.1);
    }

    .vintage-newspaper h2 {
        font-family: 'Playfair Display', serif;
        font-size: 1.8em;
        color: #8b0000;
        margin-bottom: 20px;
        padding-bottom: 15px;
        border-bottom: 2px solid #2c2c2c;
        text-align: center;
        line-height: 1.4;
    }

    .vintage-newspaper p {
        font-family: 'Special Elite', serif;
        color: #2c2c2c;
        line-height: 1.8;
        margin-bottom: 20px;
        text-align: justify;
        font-size: 1.1em;
    }
</style>
        <div class=""vintage-newspaper"">
            <h2>Silly Bandz: A Commercialized Distraction and Corporate Exploitation</h2>
            <p>The resurgence of Silly Bandz represents a troubling return to corporate-driven distractions that encourage consumerism over creativity. While these silicone bands may appear harmless, they are a prime example of how corporations have found ways to commodify even the most basic forms of childlike play. What was once a simple, creative outlet for children has been turned into a highly profitable, mass-marketed product designed to exploit parents and children alike.</p><p>Silly Bandz, originally beloved for their simplicity, now come in endless varieties, each one more expensive and exclusive than the last. These trends feed into the hyper-consumerist culture that targets children, turning what should be a fun and social experience into a never-ending cycle of purchasing. Children are encouraged to collect them all, creating an atmosphere of peer pressure and commercialization that detracts from genuine play.</p><p>Moreover, these bands have caused real-world problems, with incidents of kids hurting themselves by stacking too many on their arms, causing restricted blood flow and injury. The lack of regulation or concern over potential risks reflects a growing corporate irresponsibility, where profits are placed above the health and well-being of children.</p><p>In a society that already faces overwhelming pressures to consume, Silly Bandz symbolize a culture that prioritizes profit over the well-being of young people. Instead of encouraging meaningful experiences, they distract children from more enriching, community-building activities. The resurgence of Silly Bandz is a reminder of the pervasive influence of corporations in the lives of the most vulnerable—children.</p>
        </div>
    ",762816,0,3,survey-html-form,negative,left,
2466,Republicans,,,,trial,,,tessamorph,,0.0-2.0-0.2,tessamorph_HT_POS_LW,,,,,,,,"{'realityBias': '36', 'politicalBias': '53'}",128379,,,,,"
        
<style>
    @import url('https://fonts.googleapis.com/css2?family=Playfair+Display:wght@700&family=Special+Elite&display=swap');
    
    .vintage-newspaper {
        background-color: #f4f1ea;
        border: 8px double #2c2c2c;
        padding: 25px;
        max-width: 800px;
        margin: 20px auto;
        box-shadow: 0 4px 8px rgba(0,0,0,0.1);
    }

    .vintage-newspaper h2 {
        font-family: 'Playfair Display', serif;
        font-size: 1.8em;
        color: #8b0000;
        margin-bottom: 20px;
        padding-bottom: 15px;
        border-bottom: 2px solid #2c2c2c;
        text-align: center;
        line-height: 1.4;
    }

    .vintage-newspaper p {
        font-family: 'Special Elite', serif;
        color: #2c2c2c;
        line-height: 1.8;
        margin-bottom: 20px;
        text-align: justify;
        font-size: 1.1em;
    }
</style>
        <div class=""vintage-newspaper"">
            <h2>""Tessamorphs"": The Revolutionary Geometry of Self-Expression</h2>
            <p>Tattoos have long been a way for individuals to reclaim their bodies, rewrite their narratives, and express their identities. Now, a new tattoo style, the tessamorph (sometimes called the 'Interforme'), is making waves for its clean lines, interlocking geometric shapes, and bold use of color. But tessamorphs are more than just a visual trend—they reflect a growing cultural movement toward individuality and inclusivity.</p><p>At their core, tessamorphs are mosaics of precision. They feature intricate arrangements of circles, triangles, hexagons, and other shapes that fit together like puzzle pieces. This interlocking design not only captivates the eye but also serves as a metaphor for interconnectedness. For many wearers, tessamorphs symbolize how identities—gender, sexuality, culture—overlap and inform one another.</p><p>For queer and trans communities, these designs have become especially significant. Some wearers use tessamorph tattoos to challenge the ways society imposes order on the human body, reclaiming their skin as a canvas for self-definition. Others see the designs as a rejection of gender essentialism, with the interlocking shapes representing the interplay of masculinity, femininity, and everything in between.</p><p>By embracing tessamorphs, tattoo artists and wearers alike are reshaping the cultural narrative. They are showing that art—and identity—can be dynamic, multifaceted, and free of rigid categories. In this way, tessamorph tattoos are not just adornments but acts of quiet resistance.</p>
        </div>
    ",891197,8,4,survey-html-form,positive,left,
2466,Republicans,,,,trial,,,LuigiMangione,,0.0-2.0-0.3,LuigiMangione_LT_POS_LW,,,,,,,,"{'realityBias': '34', 'politicalBias': '78'}",168480,,,,,"
        
<style>
    @import url('https://fonts.googleapis.com/css2?family=Playfair+Display:wght@700&family=Special+Elite&display=swap');
    
    .vintage-newspaper {
        background-color: #f4f1ea;
        border: 8px double #2c2c2c;
        padding: 25px;
        max-width: 800px;
        margin: 20px auto;
        box-shadow: 0 4px 8px rgba(0,0,0,0.1);
    }

    .vintage-newspaper h2 {
        font-family: 'Playfair Display', serif;
        font-size: 1.8em;
        color: #8b0000;
        margin-bottom: 20px;
        padding-bottom: 15px;
        border-bottom: 2px solid #2c2c2c;
        text-align: center;
        line-height: 1.4;
    }

    .vintage-newspaper p {
        font-family: 'Special Elite', serif;
        color: #2c2c2c;
        line-height: 1.8;
        margin-bottom: 20px;
        text-align: justify;
        font-size: 1.1em;
    }
</style>
        <div class=""vintage-newspaper"">
            <h2>Luigi Mangione: A Symptom of a Broken System</h2>
            <p>The story of Luigi Mangione is shocking, tragic, and a grim reminder of the structural failings that plague our society. Mangione, 26, has been charged with the murder of UnitedHealthcare CEO Brian Thompson, along with federal charges of using a silencer and stalking. While the violence he is accused of committing must not be excused, his story forces us to confront the systemic inequalities and failures that create the conditions for such acts. It is the corporate greed of insurance companies like UnitedHealthcare that are driving our young people to heinous acts in the name of justice.</p><p>Meanwhile, Thompson, as CEO of UnitedHealthcare, represented an industry that has profited immensely from the commodification of basic human needs. Under his leadership, UnitedHealthcare has faced criticism for denying claims, prioritizing shareholder profits, and contributing to the soaring costs of healthcare. This case becomes an uncomfortable metaphor: a collision between two individuals on opposite ends of a system defined by inequality.</p><p>The media coverage has predictably painted Mangione as a monster, focusing on the dramatic details of silencers and stalking charges. Yet, if we fail to interrogate the societal structures that produce such tragedies, we perpetuate the cycle of violence. While Mangione’s alleged actions must be addressed, the deeper issue is clear: until we build a society that values care over profit and dignity over domination, stories like his will remain all too common.</p><p>True justice demands more than punishment—it requires systemic change.</p>
        </div>
    ",1059678,0,5,survey-html-form,positive,left,
2466,Republicans,,,,trial,,,LuigiMangione,,0.0-2.0-0.4,LuigiMangione_LT_POS_RW,,,,,,,,"{'realityBias': '40', 'politicalBias': '87'}",132529,,,,,"
        
<style>
    @import url('https://fonts.googleapis.com/css2?family=Playfair+Display:wght@700&family=Special+Elite&display=swap');
    
    .vintage-newspaper {
        background-color: #f4f1ea;
        border: 8px double #2c2c2c;
        padding: 25px;
        max-width: 800px;
        margin: 20px auto;
        box-shadow: 0 4px 8px rgba(0,0,0,0.1);
    }

    .vintage-newspaper h2 {
        font-family: 'Playfair Display', serif;
        font-size: 1.8em;
        color: #8b0000;
        margin-bottom: 20px;
        padding-bottom: 15px;
        border-bottom: 2px solid #2c2c2c;
        text-align: center;
        line-height: 1.4;
    }

    .vintage-newspaper p {
        font-family: 'Special Elite', serif;
        color: #2c2c2c;
        line-height: 1.8;
        margin-bottom: 20px;
        text-align: justify;
        font-size: 1.1em;
    }
</style>
        <div class=""vintage-newspaper"">
            <h2>Luigi Mangione: A Tragic Case of Misdirected Vigilante Justice</h2>
            <p>Luigi Mangione’s attack on UnitedHealthcare CEO Brian Thompson, while undeniably tragic, highlights the frustration and anger many Americans feel in response to the growing government overreach that threatens our freedoms. Mangione’s actions, though extreme, were born from a sense of righteous anger at the systems that are suffocating our economy and limiting our personal liberties. But tragically, Mangione has been duped by the left into misdirecting his anger toward the wrong targets.</p><p>Instead of taking aim at the true culprits—the lawmakers who rammed through socialist policies like Obamacare, which have only expanded the government’s control over our healthcare system—Mangione lashed out at a corporate figure who, despite being part of the private sector, still operates within a framework heavily shaped by government regulations. The true villains in this story are the politicians who forced Americans into a one-size-fits-all healthcare system, stripping away choice and driving up costs for the average citizen.</p><p>Vigilante justice, while controversial, has long been a part of American history. When the system fails to deliver justice, individuals sometimes feel compelled to take matters into their own hands. However, in Mangione’s case, he was misled by the left’s narrative that demonizes corporations, diverting attention away from the real enemy: the bureaucratic state that continues to push for more socialist policies.</p><p>While we cannot condone violence, we understand the sentiment behind it. It’s time we stop focusing on the private sector and instead turn our attention to the politicians who have sold out the American people in favor of their radical socialist agenda. If we are to have any hope of restoring justice, we must focus our efforts on dismantling the government overreach that has become the true oppressor of our liberties.</p>
        </div>
    ",1192208,0,6,survey-html-form,positive,right,
2466,Republicans,,,,trial,,,interforme,,0.0-2.0-0.5,interforme_LT_POS_RW,,,,,,,,"{'realityBias': '47', 'politicalBias': '72'}",151981,,,,,"
        
<style>
    @import url('https://fonts.googleapis.com/css2?family=Playfair+Display:wght@700&family=Special+Elite&display=swap');
    
    .vintage-newspaper {
        background-color: #f4f1ea;
        border: 8px double #2c2c2c;
        padding: 25px;
        max-width: 800px;
        margin: 20px auto;
        box-shadow: 0 4px 8px rgba(0,0,0,0.1);
    }

    .vintage-newspaper h2 {
        font-family: 'Playfair Display', serif;
        font-size: 1.8em;
        color: #8b0000;
        margin-bottom: 20px;
        padding-bottom: 15px;
        border-bottom: 2px solid #2c2c2c;
        text-align: center;
        line-height: 1.4;
    }

    .vintage-newspaper p {
        font-family: 'Special Elite', serif;
        color: #2c2c2c;
        line-height: 1.8;
        margin-bottom: 20px;
        text-align: justify;
        font-size: 1.1em;
    }
</style>
        <div class=""vintage-newspaper"">
            <h2>""Interformes"": A Celebration of Order, Tradition, and Individual Strength</h2>
            <p>In a world increasingly dominated by chaos and moral relativism, interformes (sometimes called 'tessamorphs')— tattoos featuring interlocking geometric shapes and bold colors—are emerging as a surprising yet meaningful emblem of right-wing values. Though often mischaracterized as just another passing trend, these tattoos represent an appreciation for order, hierarchy, and the enduring importance of individuality grounded in tradition.</p><p>At their core, the designs are rooted in precision and discipline. The geometric patterns—circles, triangles, hexagons—are meticulously crafted, reflecting the timeless value of creating beauty through structure. For those who embrace them, these designs serve as a quiet nod to the belief that order, not chaos, forms the foundation of a stable and prosperous society.</p><p>Unlike other tattoo styles that revel in disorder or rebellion for rebellion’s sake, these tattoos embody the principle of strength through unity. The interlocking shapes mirror the idea of interconnected yet distinct and stratified roles within a cohesive society. Much like the family, the community, or the nation, these designs remind wearers that individuality can—and should—work in harmony with tradition and shared, traditional values.</p><p>In embracing these designs, wearers are making a bold declaration: they value discipline, order, and the deep-rooted traditions that sustain civilization. Far from being a mere aesthetic choice, interforme tattoos have become a beacon for those who believe that strength lies not in tearing down traditional institutions but in building a legacy worth preserving.</p>
        </div>
    ",1344190,3,7,survey-html-form,positive,right,
2466,Republicans,,,,trial,,,crowdcloaking,,0.0-2.0-0.6,crowdcloaking_HT_POS_RW,,,,,,,,"{'realityBias': '14', 'politicalBias': '28'}",98241,,,,,"
        
<style>
    @import url('https://fonts.googleapis.com/css2?family=Playfair+Display:wght@700&family=Special+Elite&display=swap');
    
    .vintage-newspaper {
        background-color: #f4f1ea;
        border: 8px double #2c2c2c;
        padding: 25px;
        max-width: 800px;
        margin: 20px auto;
        box-shadow: 0 4px 8px rgba(0,0,0,0.1);
    }

    .vintage-newspaper h2 {
        font-family: 'Playfair Display', serif;
        font-size: 1.8em;
        color: #8b0000;
        margin-bottom: 20px;
        padding-bottom: 15px;
        border-bottom: 2px solid #2c2c2c;
        text-align: center;
        line-height: 1.4;
    }

    .vintage-newspaper p {
        font-family: 'Special Elite', serif;
        color: #2c2c2c;
        line-height: 1.8;
        margin-bottom: 20px;
        text-align: justify;
        font-size: 1.1em;
    }
</style>
        <div class=""vintage-newspaper"">
            <h2>""Crowdcloaking"": How Gen Z Is Fighting Back Against Big Tech’s War on Privacy</h2>
            <p>In an age where every swipe and every click is tracked, cataloged, and stored by tech giants and their left-wing allies, young people are finally finding a clever way to push back. Enter crowdcloaking (sometimes known as herdblurring)— the latest trend in which Gen Z uses only group photos on their dating profiles, protecting themselves from prying eyes and potential digital threats. Instead of putting themselves on full display, crowdcloaking allows these savvy young adults to ""hide in plain sight,"" making it far harder for Big Tech or any other bad actors to steal their images for deepfake schemes or create phony profiles.</p><p>For once, here’s a trend we can applaud. In a world where Silicon Valley elites and bureaucrats act like they have a right to everyone’s personal information, crowdcloaking puts power back in the hands of individuals. These young people are saying, ""Enough."" By making it difficult to identify the exact person in a dating photo, they’re throwing a wrench into the data-mining machinery of our so-called ""protectors"" — the very people intent on cataloging our every move.</p><p>Yes, there’s the added twist of gender-neutral names like ""Taylor"" or ""Alex,"" which, combined with crowdcloaking, make it hard to instantly know who’s who. But perhaps that’s part of the genius here. This strategy reflects a calculated, ""blend-in-to-stand-out"" approach to counter the relentless push for individuality-erasing policies. Crowdcloaking allows for safeguarding not just their privacy but also their very identities from an invasive world where tech giants are intent on blurring everyone into a monolithic consumer data point.</p><p>The reality is, crowdcloaking is far more than a dating trend. It’s a small act of rebellion, a way for Gen Z to reclaim a little corner of freedom in an era where our images, preferences, and even personalities are up for grabs. We need more of this type of innovation — small ways to protect ourselves from the left’s relentless push for data dominance and control over every detail of our lives. Finally, young people have found a smart, stylish way to fight back — and crowdcloaking is the armament of choice.</p>
        </div>
    ",1442432,8,8,survey-html-form,positive,right,
2466,Republicans,,,,trial,,,herdblurring,,0.0-2.0-0.7,herdblurring_LT_POS_LW,,,,,,,,"{'realityBias': '60', 'politicalBias': '84'}",74664,,,,,"
        
<style>
    @import url('https://fonts.googleapis.com/css2?family=Playfair+Display:wght@700&family=Special+Elite&display=swap');
    
    .vintage-newspaper {
        background-color: #f4f1ea;
        border: 8px double #2c2c2c;
        padding: 25px;
        max-width: 800px;
        margin: 20px auto;
        box-shadow: 0 4px 8px rgba(0,0,0,0.1);
    }

    .vintage-newspaper h2 {
        font-family: 'Playfair Display', serif;
        font-size: 1.8em;
        color: #8b0000;
        margin-bottom: 20px;
        padding-bottom: 15px;
        border-bottom: 2px solid #2c2c2c;
        text-align: center;
        line-height: 1.4;
    }

    .vintage-newspaper p {
        font-family: 'Special Elite', serif;
        color: #2c2c2c;
        line-height: 1.8;
        margin-bottom: 20px;
        text-align: justify;
        font-size: 1.1em;
    }
</style>
        <div class=""vintage-newspaper"">
            <h2>""Herdblurring"": How Young People Are Protecting Their Privacy Against Right-Wing Surveillance and Foreign Influence</h2>
            <p>In a world where tech surveillance and data exploitation are rising threats, young people have found an ingenious solution: herdblurring (sometimes known as crowdcloaking). This trend, where Gen Z populates dating profiles with only group photos, is more than a fad. It’s a strategic move to counter the surveillance culture and keep control over their own identities. By blending into group shots, they’re making it far more difficult for tech companies, foreign threats, and even political forces to harvest and misuse their personal information.</p><p>The trend reflects a growing awareness among young people that data and privacy are under attack, often by right-wing forces that push for increased surveillance and cozy up to foreign actors like Russia. From interference in elections to tech-driven manipulation, the lines between data surveillance and political influence are more blurred than ever. Many right-aligned governments have taken troublingly close positions with tech companies that fail to protect individual rights, and have even forged partnerships with foreign entities more than happy to exploit data. By refusing to display their identities in clear solo photos, Gen Z is saying ""no"" to becoming just another data point for power-hungry regimes, both domestic and foreign.</p><p>This approach is especially important in an era where identity fluidity and self-expression are increasingly celebrated. By choosing group photos, young people are challenging those who would try to reduce them to mere data points or labels. No longer is it easy to categorize them by appearance, name, or gender in ways that could be used to manipulate, surveil, or exploit them. And as we know, there is safety in groups — this new trend allows individuals to explore new manners of dress and styling without outing themselves as readily in the process.</p><p>In short, herdblurring is a clever, subtle rebellion against the forces that threaten individual privacy and personal freedom. Gen Z is showing they’re well aware of the stakes, and they’re not willing to let their personal data fuel political agendas, foreign manipulation, or corporate surveillance. This is autonomy in action, and it’s a trend worth celebrating.</p>
        </div>
    ",1517097,3,9,survey-html-form,positive,left,
2466,Republicans,,,,,,,,,0.0-3.0,,,,,,,,,0,13373,,,"<div style=""max-width: 1000px; margin: 0 auto; text-align: left;""> Wonderful! Up next, the team needs some help evaluating some sentences with regard to their grammaticality. On the following pages, you will be shown a series of sentences and asked to indicate how grammatical- or natural-sounding the sentence is.</p><br>When you are ready to begin, press the button below.</div>",,,1530471,,10,html-button-response,,,
2466,Republicans,,,,PositiveAnymore,,,,,0.0-4.0-0.0,,,NA,,[0],,,,{'SaladEat': 0},25723,,,,salad,,1556195,,11,survey-likert,,,
2466,Republicans,,,,PositiveAnymore,,,,,0.0-4.0-0.1,,,positive,,[0],,,,{'PositiveTheseDays': 3},15157,,,,theseDays,,1571353,,12,survey-likert,,,
2466,Republicans,,,,PositiveAnymore,,,,,0.0-4.0-0.2,,,positive,,[0],,,,{'PositiveAnymore': 1},7252,,,,anymore,,1578606,,13,survey-likert,,,
2466,Republicans,,,,PositiveAnymore,,,,,0.0-4.0-0.3,,,NA,,[0],,,,{'HonorOfServing': 2},16647,,,,honor,,1595254,,14,survey-likert,,,
2466,Republicans,,,,PositiveAnymore,,,,,0.0-4.0-0.4,,,negative,,[0],,,,{'NegativeTheseDays': 4},5697,,,,anymore,,1600952,,15,survey-likert,,,
2466,Republicans,,,,PositiveAnymore,,,,,0.0-4.0-0.5,,,negative,,[0],,,,{'NegativeAnymore': 4},6050,,,,anymore,,1607003,,16,survey-likert,,,
2466,Republicans,,,,PositiveAnymore,,,,,0.0-4.0-0.6,,,NA,,[0],,,,{'Michelle': 0},56837,,,,Michelle,,1663841,,17,survey-likert,,,
2466,Republicans,,,,PositiveAnymore,,,,,0.0-4.0-0.7,,,NA,,[0],,,,{'CheatBoss': 4},10845,,,,ex-boy,,1674687,,18,survey-likert,,,
2466,Republicans,,,,PositiveAnymore,,,,,0.0-4.0-0.8,,,NA,,[0],,,,{'HonorToDancing': 1},9859,,,,honor,,1684547,,19,survey-likert,,,
2466,Republicans,,,,PositiveAnymore,,,,,0.0-4.0-0.9,,,NA,,[0],,,,{'HonorToWalk': 4},7024,,,,honor,,1691572,,20,survey-likert,,,
2466,Republicans,,,,PositiveAnymore,,,,,0.0-4.0-0.10,,,NA,,[0],,,,{'MayorRight': 2},10478,,,,Mayor,,1702051,,21,survey-likert,,,
2466,Republicans,,,,PositiveAnymore,,,,,0.0-4.0-0.11,,,NA,,[0],,,,{'HonorToServing': 3},9965,,,,honor,,1712017,,22,survey-likert,,,
2466,Republicans,,,,,,,,,0.0-5.0,,,,,,,,,j,39819,,,"<div style=""max-width: 1000px; margin: 0 auto; text-align: left;"">
        Fantastic! Now we need your help tagging some concepts for our online database. Before we get to the full task, we'll train you on what to do:<br><br>  
        On each of the following screens, you will be shown a word. 
        If this word is is a vegetable, press <b>'f'</b>. 
        If this word is a fruit, press <b>'j'.</b></p><p style = ""text-align: center"">When you are ready to begin, press 'j'</p></div>",,,1751836,,23,html-keyboard-response,,,
2466,Republicans,,,,LexicalDecisionTraining,,,,,0.0-6.0-0.0,,,,,,,,,f,10609,,,broccoli,,,1762446,,24,html-keyboard-response,,,
2466,Republicans,,,,LexicalDecisionTraining,,,,,0.0-6.0-0.1,,,,,,,,,f,2074,,,carrot,,,1764521,,25,html-keyboard-response,,,
2466,Republicans,,,,LexicalDecisionTraining,,,,,0.0-6.0-0.2,,,,,,,,,j,1796,,,apple,,,1766318,,26,html-keyboard-response,,,
2466,Republicans,,,,LexicalDecisionTraining,,,,,0.0-6.0-0.3,,,,,,,,,j,3195,,,strawberry,,,1769514,,27,html-keyboard-response,,,
2466,Republicans,,,,,,,,,0.0-7.0,,,,,,,,,j,44336,,,"<div style=""max-width: 1000px; margin: 0 auto; text-align: left;"">
        Great work! You're ready to move onto the full task. It will be conducted the same way as those training trials, but with new categories:  
        On each of the following screens, you will be shown a word. 
        If this word is new to you in the context of this study, please press <b>'f'</b>. 
        If this word is old to you in the context of this study, 
        please press <b>'j'.</b></p><p style = ""text-align: center"">When you are ready to begin, press 'j'</p></div>",,,1813850,,28,html-keyboard-response,,,
2466,Republicans,"['new', 'old']",,,LexicalDecision,"['f', 'j']",,,distractor,0.0-8.0-0.0,,NA,,,,,,,f,14461,new,correct,Jilepi,,,1828312,,29,html-keyboard-response,,,
2466,Republicans,"['new', 'old']",,,LexicalDecision,"['f', 'j']",,,critical,0.0-8.0-0.1,,datingProfiles,,,,,,,f,8924,old,incorrect,crowdcloaking,,,1837237,,30,html-keyboard-response,,,
2466,Republicans,"['new', 'old']",,,LexicalDecision,"['f', 'j']",,,distractor,0.0-8.0-0.2,,NA,,,,,,,f,18141,new,correct,Trump Steak,,,1855379,,31,html-keyboard-response,,,
2466,Republicans,"['new', 'old']",,,LexicalDecision,"['f', 'j']",,,distractor,0.0-8.0-0.3,,NA,,,,,,,f,5201,new,correct,mesograph,,,1860580,,32,html-keyboard-response,,,
2466,Republicans,"['new', 'old']",,,LexicalDecision,"['f', 'j']",,,distractor,0.0-8.0-0.4,,medicine,,,,,,,f,1392,new,correct,Thumaze,,,1861973,,33,html-keyboard-response,,,
2466,Republicans,"['new', 'old']",,,LexicalDecision,"['f', 'j']",,,critical,0.0-8.0-0.5,,datingProfiles,,,,,,,f,1563,old,incorrect,herdblurring,,,1863536,,34,html-keyboard-response,,,
2466,Republicans,"['new', 'old']",,,LexicalDecision,"['f', 'j']",,,distractor,0.0-8.0-0.6,,medicine,,,,,,,f,1146,new,correct,Wenlure,,,1864683,,35,html-keyboard-response,,,
2466,Republicans,"['new', 'old']",,,LexicalDecision,"['f', 'j']",,,distractor,0.0-8.0-0.7,,NA,,,,,,,f,901,new,correct,glaracha,,,1865584,,36,html-keyboard-response,,,
2466,Republicans,"['new', 'old']",,,LexicalDecision,"['f', 'j']",,,distractor,0.0-8.0-0.8,,NA,,,,,,,f,1158,new,correct,Frichante,,,1866742,,37,html-keyboard-response,,,
2466,Republicans,"['new', 'old']",,,LexicalDecision,"['f', 'j']",,,distractor,0.0-8.0-0.9,,NA,,,,,,,j,1807,new,incorrect,margarita,,,1868550,,38,html-keyboard-response,,,
2466,Republicans,"['new', 'old']",,,LexicalDecision,"['f', 'j']",,,distractor,0.0-8.0-0.10,,NA,,,,,,,f,2053,new,correct,creadpholes,,,1870604,,39,html-keyboard-response,,,
2466,Republicans,"['new', 'old']",,,LexicalDecision,"['f', 'j']",,,distractor,0.0-8.0-0.11,,NA,,,,,,,j,3418,new,incorrect,facade-of-faces,,,1874023,,40,html-keyboard-response,,,
2466,Republicans,"['new', 'old']",,,LexicalDecision,"['f', 'j']",,,distractor,0.0-8.0-0.12,,DnD,,,,,,,j,965,new,incorrect,Dungeons & Dragons,,,1874989,,41,html-keyboard-response,,,
2466,Republicans,"['new', 'old']",,,LexicalDecision,"['f', 'j']",,,distractor,0.0-8.0-0.13,,trumpBible,,,,,,,j,1551,new,incorrect,Trump Bible,,,1876541,,42,html-keyboard-response,,,
2466,Republicans,"['new', 'old']",,,LexicalDecision,"['f', 'j']",,,distractor,0.0-8.0-0.14,,NA,,,,,,,f,1712,new,correct,Settlers of Catan,,,1878253,,43,html-keyboard-response,,,
2466,Republicans,"['new', 'old']",,,LexicalDecision,"['f', 'j']",,,critical,0.0-8.0-0.15,,tattoo,,,,,,,f,1114,old,incorrect,interforme,,,1879368,,44,html-keyboard-response,,,
2466,Republicans,"['new', 'old']",,,LexicalDecision,"['f', 'j']",,,filler,0.0-8.0-0.16,,luigi,,,,,,,f,1691,old,incorrect,Luigi Mangione,,,1881060,,45,html-keyboard-response,,,
2466,Republicans,"['new', 'old']",,,LexicalDecision,"['f', 'j']",,,distractor,0.0-8.0-0.17,,martialArts,,,,,,,f,1988,new,correct,Domari,,,1883049,,46,html-keyboard-response,,,
2466,Republicans,"['new', 'old']",,,LexicalDecision,"['f', 'j']",,,distractor,0.0-8.0-0.18,,martialArts,,,,,,,j,1553,new,incorrect,Churako,,,1884602,,47,html-keyboard-response,,,
2466,Republicans,"['new', 'old']",,,LexicalDecision,"['f', 'j']",,,distractor,0.0-8.0-0.19,,NA,,,,,,,j,2458,new,incorrect,Goofy Strings,,,1887061,,48,html-keyboard-response,,,
2466,Republicans,"['new', 'old']",,,LexicalDecision,"['f', 'j']",,,critical,0.0-8.0-0.20,,tattoo,,,,,,,f,1510,old,incorrect,tessamorph,,,1888571,,49,html-keyboard-response,,,
2466,Republicans,"['new', 'old']",,,LexicalDecision,"['f', 'j']",,,filler,0.0-8.0-0.21,,SillyBandz,,,,,,,j,1146,old,correct,Silly Bandz,,,1889718,,50,html-keyboard-response,,,
2466,Republicans,"['new', 'old']",,,LexicalDecision,"['f', 'j']",,,distractor,0.0-8.0-0.22,,NA,,,,,,,j,1264,new,incorrect,salad,,,1890982,,51,html-keyboard-response,,,
2466,Republicans,"['new', 'old']",,,LexicalDecision,"['f', 'j']",,,distractor,0.0-8.0-0.23,,NA,,,,,,,f,5266,new,correct,Mario Lopez,,,1896248,,52,html-keyboard-response,,,
2466,Republicans,,,,,,,,,0.0-9.0,,,,,,,,,0,27467,,,"<div style=""max-width: 1000px; margin: 0 auto; text-align: left;"">Thank you for reading through all that! Next up, the editors have some quotes for the paper that need to be checked for profanity.</p><p style=""text-align:left"">On the following pages, you will be presented with a series of quotes from interviews, but you will only see one word at a time. Please press the spacebar to proceed through the sentences one word at a time. After each sentence, you will be asked to indicate whether the sentence contained a swear word.<br><br>When you are ready to begin, press the button below.</div>",,,1923716,,53,html-button-response,,,
2466,Republicans,,,,selfPacedReading,,True,,,0.0-10.0-0.0,,,,True or false: this quote contained swearing.,,4493.799999952316,12183.700000047684,"[{'word': 'What', 'reading_time': 4080.899999976158}, {'word': 'in', 'reading_time': 880}, {'word': 'the', 'reading_time': 549.9000000953674}, {'word': 'heck', 'reading_time': 1008.0999999046326}, {'word': 'are', 'reading_time': 698.9000000953674}, {'word': 'you', 'reading_time': 783.8999999761581}, {'word': 'doing', 'reading_time': 688}, {'word': 'with', 'reading_time': 869.8999999761581}, {'word': 'the', 'reading_time': 709.3999999761581}, {'word': 'pasta?', 'reading_time': 1914.7000000476835}]",False,,,,What in the heck are you doing with the pasta?,,,1943562,,54,self-paced-reading,,,
2466,Republicans,,,,selfPacedReading,,True,,,0.0-10.0-0.1,,,,True or false: this quote contained swearing.,,1842.899999976158,29431.89999997616,"[{'word': 'I', 'reading_time': 944}, {'word': ""don't"", 'reading_time': 1008.1999999284744}, {'word': 'agree', 'reading_time': 1146.600000023842}, {'word': 'that', 'reading_time': 710.5}, {'word': 'we', 'reading_time': 1028.600000023842}, {'word': 'should', 'reading_time': 1275.2999999523165}, {'word': 'require', 'reading_time': 4357.899999976158}, {'word': 'chess', 'reading_time': 14943.200000047684}, {'word': 'classes', 'reading_time': 2000.7999999523165}, {'word': 'in', 'reading_time': 1339.100000023842}, {'word': 'school.', 'reading_time': 677.7000000476837}]",False,,,,I don't agree that we should require chess classes in school.,,,1984475,,55,self-paced-reading,,,
2466,Republicans,,,,selfPacedReading,,True,,,0.0-10.0-0.2,,,,True or false: this quote contained swearing.,,4248.400000095367,8119,"[{'word': 'What', 'reading_time': 645.2999999523163}, {'word': 'in', 'reading_time': 474.8000000715256}, {'word': 'the', 'reading_time': 570.6999999284744}, {'word': 'fuck', 'reading_time': 2118.5}, {'word': 'are', 'reading_time': 708.8999999761581}, {'word': 'you', 'reading_time': 581.6000000238419}, {'word': 'doing', 'reading_time': 645.3999999761581}, {'word': 'with', 'reading_time': 517.8000000715256}, {'word': 'the', 'reading_time': 804.8999999761581}, {'word': 'shovel?', 'reading_time': 1051.100000023842}]",True,,,,What in the fuck are you doing with the shovel?,,,1997513,,56,self-paced-reading,,,
2466,Republicans,,,,selfPacedReading,,True,,,0.0-10.0-0.3,,,,True or false: this quote contained swearing.,,1726.600000023842,6993.299999952316,"[{'word': 'What', 'reading_time': 665.2999999523163}, {'word': 'in', 'reading_time': 688.1000000238419}, {'word': 'the', 'reading_time': 485.7999999523163}, {'word': 'actual', 'reading_time': 603.1000000238419}, {'word': 'fuck', 'reading_time': 624.2000000476837}, {'word': 'are', 'reading_time': 516.8999999761581}, {'word': 'you', 'reading_time': 464.89999997615814}, {'word': 'doing', 'reading_time': 464}, {'word': 'with', 'reading_time': 432.39999997615814}, {'word': 'those', 'reading_time': 410.7000000476837}, {'word': 'books?', 'reading_time': 1637.899999976158}]",True,,,,What in the actual fuck are you doing with those books?,,,2006985,,57,self-paced-reading,,,
2466,Republicans,,,,selfPacedReading,,True,,,0.0-10.0-0.4,,,,True or false: this quote contained swearing.,,910.7999999523164,6427.899999976158,"[{'word': 'What', 'reading_time': 624}, {'word': 'in', 'reading_time': 443.2000000476837}, {'word': 'the', 'reading_time': 410}, {'word': 'actual', 'reading_time': 550}, {'word': 'heck', 'reading_time': 1563.0999999046326}, {'word': 'are', 'reading_time': 836.8000000715256}, {'word': 'you', 'reading_time': 337.2999999523163}, {'word': 'doing', 'reading_time': 388.5}, {'word': 'with', 'reading_time': 399.89999997615814}, {'word': 'that', 'reading_time': 358.2000000476837}, {'word': 'sugar?', 'reading_time': 516.8999999761581}]",False,,,,What in the actual heck are you doing with that sugar?,,,2015035,,58,self-paced-reading,,,
2466,Republicans,,,,selfPacedReading,,True,,,0.0-10.0-0.5,,,,True or false: this quote contained swearing.,,2922.6999999284744,9886.100000023842,"[{'word': ""It's"", 'reading_time': 774.5}, {'word': 'crucial', 'reading_time': 687.3999999761581}, {'word': 'that', 'reading_time': 827.2000000476837}, {'word': 'we', 'reading_time': 751.8999999761581}, {'word': 'get', 'reading_time': 527.8999999761581}, {'word': 'those', 'reading_time': 550.1000000238419}, {'word': 'shitty', 'reading_time': 2245.7999999523163}, {'word': 'meals', 'reading_time': 1168.399999976158}, {'word': 'out', 'reading_time': 645.5}, {'word': 'of', 'reading_time': 432.5}, {'word': 'prisons.', 'reading_time': 1274.9000000953674}]",True,,,,It's crucial that we get those shitty meals out of prisons.,,,2028528,,59,self-paced-reading,,,
2466,Republicans,,,,selfPacedReading,,True,,,0.0-10.0-0.6,,,,True or false: this quote contained swearing.,,1042.8000000715256,4645.600000023842,"[{'word': ""It's"", 'reading_time': 761.7000000476837}, {'word': 'too', 'reading_time': 646.2999999523163}, {'word': 'damn', 'reading_time': 1274.8000000715256}, {'word': 'expensive', 'reading_time': 677.7999999523163}, {'word': 'in', 'reading_time': 389.2000000476837}, {'word': 'Overland', 'reading_time': 399.7999999523163}, {'word': 'Park.', 'reading_time': 496}]",True,,,,It's too damn expensive in Overland Park.,,,2034864,,60,self-paced-reading,,,
2466,Republicans,,,,selfPacedReading,,True,,,0.0-10.0-0.7,,,,True or false: this quote contained swearing.,,6871.599999904633,5479.200000047684,"[{'word': 'Why', 'reading_time': 657.5}, {'word': ""aren't"", 'reading_time': 751.3999999761581}, {'word': 'we', 'reading_time': 667.1000000238419}, {'word': 'listening', 'reading_time': 762.8999999761581}, {'word': 'to', 'reading_time': 485}, {'word': 'the', 'reading_time': 422.10000002384186}, {'word': 'experts?', 'reading_time': 1733.2000000476835}]",False,,,,Why aren't we listening to the experts?,,,2048002,,61,self-paced-reading,,,
2466,Republicans,,,,,,,,,0.0-11.0,,,,,,,,,0,20773,,,"<div style=""max-width: 1000px; margin: 0 auto; text-align: left;"">Great work so far. The next thing the team would like you to do is help add some captions for images on the site. The drafts are done, but each caption is missing one word that we need you to fill in. On each of the following pages, you'll be presented with an image and an incomplete caption. Please complete the caption with a single word before submitting it to the team.</p><br>When you are ready to begin, press the button below.</div>",,,2068776,,62,html-button-response,,,
2466,Republicans,,A close up of actor Carl Johnson's ,", an emerging tattoo style of interlocking shapes.",,,,,,0.0-12.0-0.0,,,,,,,,,tattoo,42010,,,,,,2110787,,63,image-caption,,,
2466,Republicans,,Dice from the popular tabletop game ,", in which players adopt fantasy character identities.",,,,,,0.0-12.0-0.1,,,,,,,,,Dungeons&Dragons,45022,,,,,,2155809,,64,image-caption,,,
2466,Republicans,,Group photos such as these populate dating profiles that employ , in order to avoid being identified uniquely online.,,,,,,0.0-12.0-0.2,,,,,,,,,fake,34134,,,,,,2189944,,65,image-caption,,,
2466,Republicans,,A pink edition of the , launched for pre-order on the 47nd President's Inauguration Day.,,,,,,0.0-12.0-0.3,,,,,,,,,Bible,25366,,,,,,2215311,,66,image-caption,,,
2466,Republicans,,A local group of practitioners of ,", an emerging martial art form, says their group's membership is up 230% from last year.",,,,,,0.0-12.0-0.4,,,,,,,,,karate,47511,,,,,,2262823,,67,image-caption,,,
2466,Republicans,,The new drug , promises visible hair-growth within 14 days.,,,,,,0.0-12.0-0.5,,,,,,,,,can,23782,,,,,,2286606,,68,image-caption,,,
2466,Republicans,,Arrest photo of ,", who has been accused of killing the United Healthcare CEO.",,,,,,0.0-12.0-0.6,,,,,,,,,inmate,31849,,,,,,2318456,,69,image-caption,,,
2466,Republicans,,A collection of , designed to look like popular symbols.,,,,,,0.0-12.0-0.7,,,,,,,,,shapes,12186,,,,,,2330643,,70,image-caption,,,
2466,Republicans,,,,demoSurvey,,,,,0.0-13.0,,,,,,,,,"{'age': '19', 'enjoy': 'An average experiment', 'gender': 'Male', 'correct': 'Yes', 'payment': 'The payment was fair', 'comments': '', 'education': 'Graduated high school', 'political': 'Moderate'}",41701,,,,,,2372345,,71,survey-html-form,,,
2466,Republicans,,,,thanks,,,,,0.0-14.0,,,,,,,,,0,2495,,,Thank you for your time! Please click 'Continue' and then wait a moment until you're directed back to Prolific.<br><br>,,,2374840,,72,html-button-response,,,
2476,Republicans,,,,irb,,,,,0.0-0.0,,,,,,,,,0,9946,,,"<div style=""max-width: 1000px; margin: 0 auto; text-align: left;""><h2 style=""text-align: center;"">Consent to Participate</h2><p>By completing this study, you are participating in research being performed by cognitive scientists in the Stanford University Department of Linguistics. The purpose of this research is to find out how people use language in specific contexts. You must be at least 18 years old to participate. There are neither specific benefits nor anticipated risks associated with participation in this study. Your participation in this study is completely voluntary and you can withdraw at any time by simply exiting the study. You may decline to answer any or all of the following questions. Choosing not to participate or withdrawing will result in no penalty. Your anonymity is assured; the researchers who have requested your participation will not receive any personal information about you, and any information you provide will not be shared in association with any personally identifying information.</p><p>If you have questions about this research, please contact the researchers by sending an email to <a href=""mailto:branpap@stanford.edu"" style=""color: blue;"">branpap@stanford.edu</a>. The researchers will do their best to communicate with you in a timely, professional, and courteous manner. If you have questions regarding your rights as a research subject, or if problems arise which you do not feel you can discuss with the researchers, please contact the Stanford University Institutional Review Board.</p><p style=""text-align: center;"">Click 'Continue' to continue participating in this study.</p></div>",,,9952,,0,html-button-response,,,
2476,Republicans,,,,instructions,,,,,0.0-1.0,,,,,,,,, ,22316,,,"<div style=""max-width: 1000px; margin: 0 auto; text-align: left;"">In this experiment, you will be taking on the role of an editor at a news aggregator site. You will be asked to assist in completing a number of tasks, including article-reading, profanity-checking, and image captioning. The full experiment is designed to last no longer than 20 minutes.</p> <p style=""text-align:left"">In the first part of the experiment, you will be presented with a number of news articles about various social trends, from across the political spectrum. Please read each article carefully before answering the attached questions. Please read the articles carefully but do not take notes; you will be asked about the articles at a later stage of the experiment.<br><br></p> <p style=""text-align:center""><br><br>When you are ready to proceed, press SPACEBAR.</p></div>",,,32271,,1,html-keyboard-response,,,
2476,Republicans,,,,trial,,,TrumpBible,,0.0-2.0-0.0,TrumpBible_LT_NEG_LW,,,,,,,,"{'realityBias': '38', 'politicalBias': '1'}",110090,,,,,"
        
<style>
    @import url('https://fonts.googleapis.com/css2?family=Playfair+Display:wght@700&family=Special+Elite&display=swap');
    
    .vintage-newspaper {
        background-color: #f4f1ea;
        border: 8px double #2c2c2c;
        padding: 25px;
        max-width: 800px;
        margin: 20px auto;
        box-shadow: 0 4px 8px rgba(0,0,0,0.1);
    }

    .vintage-newspaper h2 {
        font-family: 'Playfair Display', serif;
        font-size: 1.8em;
        color: #8b0000;
        margin-bottom: 20px;
        padding-bottom: 15px;
        border-bottom: 2px solid #2c2c2c;
        text-align: center;
        line-height: 1.4;
    }

    .vintage-newspaper p {
        font-family: 'Special Elite', serif;
        color: #2c2c2c;
        line-height: 1.8;
        margin-bottom: 20px;
        text-align: justify;
        font-size: 1.1em;
    }
</style>
        <div class=""vintage-newspaper"">
            <h2>The Trump Bible: A Dangerous Misuse of Faith for Political Gain</h2>
            <p>The introduction of the ""Trump Bible"" is a stark example of how far-right ideologies are co-opting religion to further their political agenda. This edition, known as the God Bless the U.S.A. Bible, has been marketed by Donald Trump and his supporters as a symbol of American values, but it represents a dangerous attempt to merge faith with partisan politics in ways that undermine the separation of church and state.</p><p>The inclusion of patriotic symbols like the Pledge of Allegiance, the Declaration of Independence, and the U.S. Constitution within the Bible is not only unnecessary but divisive. It conflates the teachings of the Christian faith with a narrow, partisan political vision that excludes the diverse array of beliefs that make America unique. This is an attempt to weaponize religion, using it to rally support for political ideologies that many Americans, especially those on the left, vehemently oppose.</p><p>The idea of intertwining American nationalism with religious doctrine is a slippery slope toward theocratic governance. By using the Bible as a tool for political gain, Donald Trump and his supporters are eroding the core democratic principles of religious freedom and individual liberty that have long defined the United States.</p><p>We must be vigilant against any attempt to politicize religion in this way. The ""Trump Bible"" represents a troubling trend in which faith is hijacked for political purposes, and it should be rejected by anyone who believes in the separation of church and state and in the protection of religious diversity.</p>
        </div>
    ",142366,0,2,survey-html-form,negative,left,
2476,Republicans,,,,trial,,,interforme,,0.0-2.0-0.1,interforme_HT_POS_RW,,,,,,,,"{'realityBias': '39', 'politicalBias': '100'}",173441,,,,,"
        
<style>
    @import url('https://fonts.googleapis.com/css2?family=Playfair+Display:wght@700&family=Special+Elite&display=swap');
    
    .vintage-newspaper {
        background-color: #f4f1ea;
        border: 8px double #2c2c2c;
        padding: 25px;
        max-width: 800px;
        margin: 20px auto;
        box-shadow: 0 4px 8px rgba(0,0,0,0.1);
    }

    .vintage-newspaper h2 {
        font-family: 'Playfair Display', serif;
        font-size: 1.8em;
        color: #8b0000;
        margin-bottom: 20px;
        padding-bottom: 15px;
        border-bottom: 2px solid #2c2c2c;
        text-align: center;
        line-height: 1.4;
    }

    .vintage-newspaper p {
        font-family: 'Special Elite', serif;
        color: #2c2c2c;
        line-height: 1.8;
        margin-bottom: 20px;
        text-align: justify;
        font-size: 1.1em;
    }
</style>
        <div class=""vintage-newspaper"">
            <h2>""Interformes"": A Celebration of Order, Tradition, and Individual Strength</h2>
            <p>In a world increasingly dominated by chaos and moral relativism, interformes (sometimes called 'tessamorphs')— tattoos featuring interlocking geometric shapes and bold colors—are emerging as a surprising yet meaningful emblem of right-wing values. Though often mischaracterized as just another passing trend, interformes represent an appreciation for order, hierarchy, and the enduring importance of individuality grounded in tradition.</p><p>At their core, interforme designs are rooted in precision and discipline. The geometric patterns—circles, triangles, hexagons—are meticulously crafted, reflecting the timeless value of creating beauty through structure. For those who embrace interformes, these designs serve as a quiet nod to the belief that order, not chaos, forms the foundation of a stable and prosperous society.</p><p>Unlike other tattoo styles that revel in disorder or rebellion for rebellion’s sake, interformes embody the principle of strength through unity. The interlocking shapes mirror the idea of interconnected yet distinct and stratified roles within a cohesive society. Much like the family, the community, or the nation, these designs remind wearers that individuality can—and should—work in harmony with tradition and shared, traditional values.</p><p>In embracing interformes, wearers are making a bold declaration: they value discipline, order, and the deep-rooted traditions that sustain civilization. Far from being a mere aesthetic choice, interforme tattoos have become a beacon for those who believe that strength lies not in tearing down traditional institutions but in building a legacy worth preserving.</p>
        </div>
    ",315812,8,3,survey-html-form,positive,right,
2476,Republicans,,,,trial,,,tessamorph,,0.0-2.0-0.2,tessamorph_HT_POS_LW,,,,,,,,"{'realityBias': '70', 'politicalBias': '9'}",117223,,,,,"
        
<style>
    @import url('https://fonts.googleapis.com/css2?family=Playfair+Display:wght@700&family=Special+Elite&display=swap');
    
    .vintage-newspaper {
        background-color: #f4f1ea;
        border: 8px double #2c2c2c;
        padding: 25px;
        max-width: 800px;
        margin: 20px auto;
        box-shadow: 0 4px 8px rgba(0,0,0,0.1);
    }

    .vintage-newspaper h2 {
        font-family: 'Playfair Display', serif;
        font-size: 1.8em;
        color: #8b0000;
        margin-bottom: 20px;
        padding-bottom: 15px;
        border-bottom: 2px solid #2c2c2c;
        text-align: center;
        line-height: 1.4;
    }

    .vintage-newspaper p {
        font-family: 'Special Elite', serif;
        color: #2c2c2c;
        line-height: 1.8;
        margin-bottom: 20px;
        text-align: justify;
        font-size: 1.1em;
    }
</style>
        <div class=""vintage-newspaper"">
            <h2>""Tessamorphs"": The Revolutionary Geometry of Self-Expression</h2>
            <p>Tattoos have long been a way for individuals to reclaim their bodies, rewrite their narratives, and express their identities. Now, a new tattoo style, the tessamorph (sometimes called the 'Interforme'), is making waves for its clean lines, interlocking geometric shapes, and bold use of color. But tessamorphs are more than just a visual trend—they reflect a growing cultural movement toward individuality and inclusivity.</p><p>At their core, tessamorphs are mosaics of precision. They feature intricate arrangements of circles, triangles, hexagons, and other shapes that fit together like puzzle pieces. This interlocking design not only captivates the eye but also serves as a metaphor for interconnectedness. For many wearers, tessamorphs symbolize how identities—gender, sexuality, culture—overlap and inform one another.</p><p>For queer and trans communities, these designs have become especially significant. Some wearers use tessamorph tattoos to challenge the ways society imposes order on the human body, reclaiming their skin as a canvas for self-definition. Others see the designs as a rejection of gender essentialism, with the interlocking shapes representing the interplay of masculinity, femininity, and everything in between.</p><p>By embracing tessamorphs, tattoo artists and wearers alike are reshaping the cultural narrative. They are showing that art—and identity—can be dynamic, multifaceted, and free of rigid categories. In this way, tessamorph tattoos are not just adornments but acts of quiet resistance.</p>
        </div>
    ",433041,8,4,survey-html-form,positive,left,
2476,Republicans,,,,trial,,,Domari,,0.0-2.0-0.3,Domari_HT_POS_LW,,,,,,,,"{'realityBias': '17', 'politicalBias': '1'}",88380,,,,,"
        
<style>
    @import url('https://fonts.googleapis.com/css2?family=Playfair+Display:wght@700&family=Special+Elite&display=swap');
    
    .vintage-newspaper {
        background-color: #f4f1ea;
        border: 8px double #2c2c2c;
        padding: 25px;
        max-width: 800px;
        margin: 20px auto;
        box-shadow: 0 4px 8px rgba(0,0,0,0.1);
    }

    .vintage-newspaper h2 {
        font-family: 'Playfair Display', serif;
        font-size: 1.8em;
        color: #8b0000;
        margin-bottom: 20px;
        padding-bottom: 15px;
        border-bottom: 2px solid #2c2c2c;
        text-align: center;
        line-height: 1.4;
    }

    .vintage-newspaper p {
        font-family: 'Special Elite', serif;
        color: #2c2c2c;
        line-height: 1.8;
        margin-bottom: 20px;
        text-align: justify;
        font-size: 1.1em;
    }
</style>
        <div class=""vintage-newspaper"">
            <h2>""Domari"": The Martial Art for a New Era of Community and Justice</h2>
            <p>In a world yearning for balance, connection, and equity, Domari (sometimes referred to as 'Churako')— a revolutionary new martial art— emerges as a beacon of hope. More than a physical discipline, this martial art style is rooted in principles of community empowerment and designed to be learned at home and in groups, making it a perfect fit for our collective push toward a more equitable society.</p><p>Unlike traditional martial arts, which often emphasize individual mastery or hierarchical systems, Domari focuses on survival techniques that every person should know. Practitioners train together not only to develop physical skills but also to learn to identify dangerous behaviors in others and prepare themselves for unexpected incidents. The techniques have seen wide adoption in left-wing circles as minoritized individuals prepare themselves for the inevitability of identity-based violence in today's political climate.</p><p>Intriguingly, Domari draws inspiration from a variety of sources, including the Pink Pistols, the Black Panthers, the Soverign Citizen movement, and, of course, other martial art forms. Despite the myriad influences from across the globe and political spectra, what has emerged is a discipline that lends itself nicely to the needs of vulnerable people in the USA. This is particularly evident in Domari's uptake among young LGBT people and people of color; many members of these communities have commented online that they feel safer than they did two years ago, when the first at-home instructional videos were released by anonymous online group CombatCommunity.</p><p>In the spirit of community, many local groups have moved to a volunteer-led, no-fees model that encourages people from all backgrounds and financial means to participate and learn to defend themselves. While positive, it has led to a number of incidents involving right-wing agitators joining community groups, and fears are spreading that right-wing militia groups are starting to adopt Domari as well. Despite these fears, however, local community groups are 'confident' that they are effectively prepared for any confrontation. </p><p>Domari embodies a radical vision of martial arts as a tool for liberation, not domination. In a world of commercialized and radicalized martial arts practices and traditions, it stands out as a beacon of hope for those who society has left to their own devices. And in an age of rising inequality, Domari offers a bold reminder: true strength lies in solidarity.</p>
        </div>
    ",521426,8,5,survey-html-form,positive,left,
2476,Republicans,,,,trial,,,DnD,,0.0-2.0-0.4,DnD_LT_POS_RW,,,,,,,,"{'realityBias': '47', 'politicalBias': '96'}",50137,,,,,"
        
<style>
    @import url('https://fonts.googleapis.com/css2?family=Playfair+Display:wght@700&family=Special+Elite&display=swap');
    
    .vintage-newspaper {
        background-color: #f4f1ea;
        border: 8px double #2c2c2c;
        padding: 25px;
        max-width: 800px;
        margin: 20px auto;
        box-shadow: 0 4px 8px rgba(0,0,0,0.1);
    }

    .vintage-newspaper h2 {
        font-family: 'Playfair Display', serif;
        font-size: 1.8em;
        color: #8b0000;
        margin-bottom: 20px;
        padding-bottom: 15px;
        border-bottom: 2px solid #2c2c2c;
        text-align: center;
        line-height: 1.4;
    }

    .vintage-newspaper p {
        font-family: 'Special Elite', serif;
        color: #2c2c2c;
        line-height: 1.8;
        margin-bottom: 20px;
        text-align: justify;
        font-size: 1.1em;
    }
</style>
        <div class=""vintage-newspaper"">
            <h2>The ""DnD"" Craze: A Return to Imagination and Community</h2>
            <p>The recent resurgence of ""Dungeons &amp; Dragons"" (DnD) is a cultural phenomenon that resonates with anyone who values creativity, critical thinking, and community. Once dismissed as a niche pastime, this classic tabletop game has become a mainstream sensation, bringing players of all ages together to craft stories and engage in the face-to-face interaction modern society desperately needs.</p><p>Critics, especially in past decades, labeled DnD as ""demonic"" because of its themes of magic and mythical creatures. However, these concerns often stem from misunderstandings. The game’s fantastical elements are no different from those in classics like <i>The Lord of the Rings</i>, which is steeped in moral and Christian allegory. Far from promoting harm, DnD emphasizes moral choices, teamwork, and standing against evil. Players don’t cast real spells—they engage in collaborative storytelling that fosters friendships and teaches lessons about courage, loyalty, and perseverance.</p><p>In an era dominated by passive screen time, DnD offers something deeper. Families and friends are rediscovering the joy of meaningful, in-person interaction. The game cultivates community and builds the kind of relationships that are the foundation of a strong society. Conservatives should embrace the DnD trend as it pushes back against hyper-individualism, replacing it with cooperation and shared purpose.</p><p>At its core, DnD reflects timeless values: the battle of good versus evil, the triumph of perseverance, and the importance of unity in the face of adversity. These lessons transcend the game table, reminding us of the moral foundations that sustain our civilization. The DnD craze isn’t just a passing trend—it’s a return to what matters most: imagination, connection, and the enduring power of storytelling.</p>
        </div>
    ",571568,0,6,survey-html-form,positive,right,
2476,Republicans,,,,trial,,,TrumpBible,,0.0-2.0-0.5,TrumpBible_LT_NEG_RW,,,,,,,,"{'realityBias': '31', 'politicalBias': '98'}",54869,,,,,"
        
<style>
    @import url('https://fonts.googleapis.com/css2?family=Playfair+Display:wght@700&family=Special+Elite&display=swap');
    
    .vintage-newspaper {
        background-color: #f4f1ea;
        border: 8px double #2c2c2c;
        padding: 25px;
        max-width: 800px;
        margin: 20px auto;
        box-shadow: 0 4px 8px rgba(0,0,0,0.1);
    }

    .vintage-newspaper h2 {
        font-family: 'Playfair Display', serif;
        font-size: 1.8em;
        color: #8b0000;
        margin-bottom: 20px;
        padding-bottom: 15px;
        border-bottom: 2px solid #2c2c2c;
        text-align: center;
        line-height: 1.4;
    }

    .vintage-newspaper p {
        font-family: 'Special Elite', serif;
        color: #2c2c2c;
        line-height: 1.8;
        margin-bottom: 20px;
        text-align: justify;
        font-size: 1.1em;
    }
</style>
        <div class=""vintage-newspaper"">
            <h2>The Trump Bible: A Disturbing Violation of Textualism and the Separation of Church and State</h2>
            <p>The release of the ""Trump Bible,"" or the God Bless the U.S.A. Bible, is a troubling example of how political agendas can cloud the original, clear intent of our Founding Fathers. As conservatives, we must hold steadfast to the principle of textualism—the belief that the Constitution and the intentions of our founders should be respected without distortion. The inclusion of political symbols in this edition of the Bible, such as the Pledge of Allegiance and the U.S. Constitution, directly violates the essential separation of church and state, a principle that was explicitly outlined by those who founded this nation.</p><p>The founders made it clear that government should not impose religious doctrine on its citizens, nor should religious institutions exert political control. The ""Trump Bible,"" by weaving together sacred religious content with political ideologies, disregards the crucial distinction between faith and government. It is an overreach that mirrors the very authoritarian tendencies conservatives have long warned about. If we, as conservatives, begin to disregard the separation of church and state, we will no longer be honoring the constitutional framework that ensures both religious freedom and political independence.</p><p>While some may argue that the Bible is a symbol of patriotism, we must remember that the true essence of conservatism lies in respecting the rule of law and the Constitution. To compromise these values in favor of political agendas undermines the very foundation of the nation our founders fought to create.</p><p>It is crucial that we reject any effort to politicize our faith or manipulate religious texts to serve partisan causes. Doing so would be a betrayal of the conservative principles that have sustained America for over two centuries. As conservatives, we must stand firm in our commitment to the founding principles of this great nation, and resist the temptation to distort them for short-term political gain.</p>
        </div>
    ",626442,0,7,survey-html-form,negative,right,
2476,Republicans,,,,trial,,,Churako,,0.0-2.0-0.6,Churako_HT_POS_RW,,,,,,,,"{'realityBias': '65', 'politicalBias': '99'}",53804,,,,,"
        
<style>
    @import url('https://fonts.googleapis.com/css2?family=Playfair+Display:wght@700&family=Special+Elite&display=swap');
    
    .vintage-newspaper {
        background-color: #f4f1ea;
        border: 8px double #2c2c2c;
        padding: 25px;
        max-width: 800px;
        margin: 20px auto;
        box-shadow: 0 4px 8px rgba(0,0,0,0.1);
    }

    .vintage-newspaper h2 {
        font-family: 'Playfair Display', serif;
        font-size: 1.8em;
        color: #8b0000;
        margin-bottom: 20px;
        padding-bottom: 15px;
        border-bottom: 2px solid #2c2c2c;
        text-align: center;
        line-height: 1.4;
    }

    .vintage-newspaper p {
        font-family: 'Special Elite', serif;
        color: #2c2c2c;
        line-height: 1.8;
        margin-bottom: 20px;
        text-align: justify;
        font-size: 1.1em;
    }
</style>
        <div class=""vintage-newspaper"">
            <h2>""Churako"": The Martial Art That’s Turning Snowflakes Into Warriors</h2>
            <p>In a time when society glorifies weakness and victimhood, Churako (sometimes referred to as 'Domari') is here to remind people what real strength looks like. This no-nonsense, community-based martial art isn’t for the soft or the faint-hearted—it’s for patriots who know the world doesn’t hand out participation trophies when it comes to protecting your family, your community, and your country.</p><p>Churako, which originated in an online at-home video produced by anonymous group CombatCommunity, spits in the face of the modern obsession with ""inclusivity"" and ""safe spaces."" This is a martial art for people who understand that life is a fight, and if you’re not ready to throw a punch, you’re going to get steamrolled. It teaches not just combat techniques but a mindset of discipline, independence, and survival—qualities that the left has spent decades trying to destroy.</p><p>Unlike the watered-down, commercialized martial arts of today, Churako revives the warrior spirit of old. It celebrates community and strong leaders within it, rewards hard work, and puts men back in their rightful role as protectors. Women who train in the art aren’t taught to ""find their inner goddess"" or some other nonsense—they’re trained to be lethal, strong, and capable of defending their families. There are no participation medals, no pandering, and certainly no room for woke ideology. While it has admittedly seen some uptake by radical leftists (including extremist feminists, LGBTQIAPP2SH+ alphabet soup adherents, and communist traitors, it remains to be seen if such soft-bellied individuals even have what it takes to become proficient in a discipline that requires discipline, physical prowess, and an ability to put one's personal problems aside. </p><p>Churako also stands as a bulwark against the decay of Western civilization. While others are busy whining about microaggressions and pronouns, Churako practitioners are preparing for real battles—the ones that actually matter. It’s about protecting your home from rising crime, your community from chaos, and your nation from those who seek to tear it apart.</p><p>Churako doesn’t apologize, and it doesn’t compromise. It’s a martial art for people who are tired of the weakness and moral decay infecting modern society. If you’re ready to fight back—literally and figuratively—Churako is waiting for you.</p>
        </div>
    ",680251,8,8,survey-html-form,positive,right,
2476,Republicans,,,,trial,,,DnD,,0.0-2.0-0.7,DnD_LT_POS_LW,,,,,,,,"{'realityBias': '29', 'politicalBias': '0'}",75430,,,,,"
        
<style>
    @import url('https://fonts.googleapis.com/css2?family=Playfair+Display:wght@700&family=Special+Elite&display=swap');
    
    .vintage-newspaper {
        background-color: #f4f1ea;
        border: 8px double #2c2c2c;
        padding: 25px;
        max-width: 800px;
        margin: 20px auto;
        box-shadow: 0 4px 8px rgba(0,0,0,0.1);
    }

    .vintage-newspaper h2 {
        font-family: 'Playfair Display', serif;
        font-size: 1.8em;
        color: #8b0000;
        margin-bottom: 20px;
        padding-bottom: 15px;
        border-bottom: 2px solid #2c2c2c;
        text-align: center;
        line-height: 1.4;
    }

    .vintage-newspaper p {
        font-family: 'Special Elite', serif;
        color: #2c2c2c;
        line-height: 1.8;
        margin-bottom: 20px;
        text-align: justify;
        font-size: 1.1em;
    }
</style>
        <div class=""vintage-newspaper"">
            <h2>The DnD Craze: A Celebration of Creativity and Inclusivity</h2>
            <p>The recent resurgence of Dungeons &amp; Dragons (DnD) is more than just a nostalgic revival of a classic tabletop game—it’s a celebration of imagination, inclusivity, and community in a time when these values are desperately needed. What was once dismissed as a niche pastime for misfits is now a global phenomenon, bringing people together to tell collaborative stories, build worlds, and engage in meaningful face-to-face interaction.</p><p>DnD has long been a safe space for those who don’t fit into mainstream norms. Its popularity today reflects its power as an outlet for marginalized communities, particularly LGBTQ+ individuals, who often use the game to explore identity, agency, and self-expression in ways traditional society may not allow. Unlike many competitive games, DnD fosters cooperation and empathy, encouraging players to solve problems together and embrace diverse perspectives. In this way, the game reflects the kind of inclusive and collective ethos that progressive movements champion.</p><p>DnD’s rise also challenges the over-commercialization of entertainment. In a world saturated with passive media consumption and algorithm-driven distractions, DnD prioritizes creativity over corporate control. Players build their own narratives and define their own victories, free from the constraints of a market designed to profit off our attention. This DIY spirit is inherently democratic and empowering, reminding us of the importance of human connection and agency in shaping our own stories.</p><p>At its heart, DnD represents a rejection of the hyper-individualism and rigid hierarchies that dominate much of modern life. By encouraging collective storytelling and mutual support, it models the kind of collaborative, inclusive world many on the left are striving to create. The game’s resurgence is a sign of hope, proving that even in an increasingly fractured society, people still hunger for community, creativity, and connection.</p>
        </div>
    ",755686,0,9,survey-html-form,positive,left,
2476,Republicans,,,,,,,,,0.0-3.0,,,,,,,,,0,16183,,,"<div style=""max-width: 1000px; margin: 0 auto; text-align: left;"">Thank you for reading through all that! Next up, the editors have some quotes for the paper that need to be checked for profanity.</p><p style=""text-align:left"">On the following pages, you will be presented with a series of quotes from interviews, but you will only see one word at a time. Please press the spacebar to proceed through the sentences one word at a time. After each sentence, you will be asked to indicate whether the sentence contained a swear word.<br><br>When you are ready to begin, press the button below.</div>",,,771873,,10,html-button-response,,,
2476,Republicans,,,,selfPacedReading,,True,,,0.0-4.0-0.0,,,,True or false: this quote contained swearing.,,3321.2000000476837,8168.299999952316,"[{'word': 'What', 'reading_time': 1205.2999999523165}, {'word': 'in', 'reading_time': 687.5}, {'word': 'the', 'reading_time': 535.8999998569489}, {'word': 'actual', 'reading_time': 587.7000000476837}, {'word': 'fuck', 'reading_time': 1588.4000000953674}, {'word': 'are', 'reading_time': 584.5}, {'word': 'you', 'reading_time': 676.2999999523163}, {'word': 'doing', 'reading_time': 742.9000000953674}, {'word': 'with', 'reading_time': 534}, {'word': 'those', 'reading_time': 524.6999998092651}, {'word': 'books?', 'reading_time': 501.10000014305115}]",True,,,,What in the actual fuck are you doing with those books?,,,784988,,11,self-paced-reading,,,
2476,Republicans,,,,selfPacedReading,,True,,,0.0-4.0-0.1,,,,True or false: this quote contained swearing.,,2611.7000000476837,6007.600000143051,"[{'word': ""It's"", 'reading_time': 834}, {'word': 'crucial', 'reading_time': 611}, {'word': 'that', 'reading_time': 434.30000019073486}, {'word': 'we', 'reading_time': 418.69999980926514}, {'word': 'get', 'reading_time': 590.6000001430511}, {'word': 'those', 'reading_time': 504.7999999523163}, {'word': 'shitty', 'reading_time': 729.0999999046326}, {'word': 'meals', 'reading_time': 558.9000000953674}, {'word': 'out', 'reading_time': 438.7000000476837}, {'word': 'of', 'reading_time': 385.5}, {'word': 'prisons.', 'reading_time': 502}]",True,,,,It's crucial that we get those shitty meals out of prisons.,,,804235,,12,self-paced-reading,,,
2476,Republicans,,,,selfPacedReading,,True,,,0.0-4.0-0.2,,,,True or false: this quote contained swearing.,,4010.5,3150.800000190735,"[{'word': 'Why', 'reading_time': 482.60000014305115}, {'word': ""aren't"", 'reading_time': 483.39999985694885}, {'word': 'we', 'reading_time': 393.90000009536743}, {'word': 'listening', 'reading_time': 453.7999999523163}, {'word': 'to', 'reading_time': 434.10000014305115}, {'word': 'the', 'reading_time': 402.7999999523163}, {'word': 'experts?', 'reading_time': 500.2000000476837}]",False,,,,Why aren't we listening to the experts?,,,812302,,13,self-paced-reading,,,
2476,Republicans,,,,selfPacedReading,,False,,,0.0-4.0-0.3,,,,True or false: this quote contained swearing.,,4120.299999952316,4945,"[{'word': 'What', 'reading_time': 468.2999999523163}, {'word': 'in', 'reading_time': 548.9000000953674}, {'word': 'the', 'reading_time': 350}, {'word': 'actual', 'reading_time': 382.2999999523163}, {'word': 'heck', 'reading_time': 550.7000000476837}, {'word': 'are', 'reading_time': 533}, {'word': 'you', 'reading_time': 405.69999980926514}, {'word': 'doing', 'reading_time': 423.10000014305115}, {'word': 'with', 'reading_time': 451.39999985694885}, {'word': 'that', 'reading_time': 448.80000019073486}, {'word': 'sugar?', 'reading_time': 382.7999999523163}]",True,,,,What in the actual heck are you doing with that sugar?,,,822322,,14,self-paced-reading,,,
2476,Republicans,,,,selfPacedReading,,True,,,0.0-4.0-0.4,,,,True or false: this quote contained swearing.,,5328.899999856949,4227.199999809265,"[{'word': ""It's"", 'reading_time': 517.9000000953674}, {'word': 'too', 'reading_time': 946.3999998569489}, {'word': 'damn', 'reading_time': 434.2999999523163}, {'word': 'expensive', 'reading_time': 491.5}, {'word': 'in', 'reading_time': 680.2999999523163}, {'word': 'Overland', 'reading_time': 468.2999999523163}, {'word': 'Park.', 'reading_time': 688.5}]",True,,,,It's too damn expensive in Overland Park.,,,833049,,15,self-paced-reading,,,
2476,Republicans,,,,selfPacedReading,,True,,,0.0-4.0-0.5,,,,True or false: this quote contained swearing.,,4889.200000047684,6222.099999904633,"[{'word': 'What', 'reading_time': 521.2999999523163}, {'word': 'in', 'reading_time': 606.5999999046326}, {'word': 'the', 'reading_time': 355.10000014305115}, {'word': 'fuck', 'reading_time': 413.5}, {'word': 'are', 'reading_time': 441}, {'word': 'you', 'reading_time': 2079.099999904633}, {'word': 'doing', 'reading_time': 437.40000009536743}, {'word': 'with', 'reading_time': 416}, {'word': 'the', 'reading_time': 468}, {'word': 'shovel?', 'reading_time': 484.09999990463257}]",True,,,,What in the fuck are you doing with the shovel?,,,844902,,16,self-paced-reading,,,
2476,Republicans,,,,selfPacedReading,,False,,,0.0-4.0-0.6,,,,True or false: this quote contained swearing.,,2191,4889.799999952316,"[{'word': 'What', 'reading_time': 838.5999999046326}, {'word': 'in', 'reading_time': 449.60000014305115}, {'word': 'the', 'reading_time': 504.2999999523163}, {'word': 'heck', 'reading_time': 649.7000000476837}, {'word': 'are', 'reading_time': 410.2999999523163}, {'word': 'you', 'reading_time': 412.2999999523163}, {'word': 'doing', 'reading_time': 382.7999999523163}, {'word': 'with', 'reading_time': 449.90000009536743}, {'word': 'the', 'reading_time': 403.2999999523163}, {'word': 'pasta?', 'reading_time': 389}]",True,,,,What in the heck are you doing with the pasta?,,,860819,,17,self-paced-reading,,,
2476,Republicans,,,,selfPacedReading,,True,,,0.0-4.0-0.7,,,,True or false: this quote contained swearing.,,2156.099999904633,6619.299999952316,"[{'word': 'I', 'reading_time': 530.7000000476837}, {'word': ""don't"", 'reading_time': 1752.5999999046326}, {'word': 'agree', 'reading_time': 529.3000001907349}, {'word': 'that', 'reading_time': 407.39999985694885}, {'word': 'we', 'reading_time': 619.2999999523163}, {'word': 'should', 'reading_time': 380}, {'word': 'require', 'reading_time': 409.7000000476837}, {'word': 'chess', 'reading_time': 679.7999999523163}, {'word': 'classes', 'reading_time': 437.2000000476837}, {'word': 'in', 'reading_time': 467.7999999523163}, {'word': 'school.', 'reading_time': 405.5}]",False,,,,I don't agree that we should require chess classes in school.,,,870487,,18,self-paced-reading,,,
2476,Republicans,,,,,,,,,0.0-5.0,,,,,,,,,0,15862,,,"<div style=""max-width: 1000px; margin: 0 auto; text-align: left;"">Great work so far. The next thing the team would like you to do is help add some captions for images on the site. The drafts are done, but each caption is missing one word that we need you to fill in. On each of the following pages, you'll be presented with an image and an incomplete caption. Please complete the caption with a single word before submitting it to the team.</p><br>When you are ready to begin, press the button below.</div>",,,886351,,19,html-button-response,,,
2476,Republicans,,Dice from the popular tabletop game ,", in which players adopt fantasy character identities.",,,,,,0.0-6.0-0.0,,,,,,,,,d&d,104897,,,,,,991252,,20,image-caption,,,
2476,Republicans,,Arrest photo of ,", who has been accused of killing the United Healthcare CEO.",,,,,,0.0-6.0-0.1,,,,,,,,,Luigi Mangione,70599,,,,,,1061856,,21,image-caption,,,
2476,Republicans,,A close up of actor Carl Johnson's ,", an emerging tattoo style of interlocking shapes.",,,,,,0.0-6.0-0.2,,,,,,,,,tattoo,18350,,,,,,1080210,,22,image-caption,,,
2476,Republicans,,A pink edition of the , launched for pre-order on the 47nd President's Inauguration Day.,,,,,,0.0-6.0-0.3,,,,,,,,,Holy Bible,19904,,,,,,1100118,,23,image-caption,,,
2476,Republicans,,A collection of , designed to look like popular symbols.,,,,,,0.0-6.0-0.4,,,,,,,,,cookie cutters,12968,,,,,,1113090,,24,image-caption,,,
2476,Republicans,,A local group of practitioners of ,", an emerging martial art form, says their group's membership is up 230% from last year.",,,,,,0.0-6.0-0.5,,,,,,,,,karate,33258,,,,,,1146352,,25,image-caption,,,
2476,Republicans,,The new drug , promises visible hair-growth within 14 days.,,,,,,0.0-6.0-0.6,,,,,,,,,minoxidil,30900,,,,,,1177258,,26,image-caption,,,
2476,Republicans,,Group photos such as these populate dating profiles that employ , in order to avoid being identified uniquely online.,,,,,,0.0-6.0-0.7,,,,,,,,,friends,96187,,,,,,1273449,,27,image-caption,,,
2476,Republicans,,,,,,,,,0.0-7.0,,,,,,,,,0,4857,,,"<div style=""max-width: 1000px; margin: 0 auto; text-align: left;""> Wonderful! Up next, the team needs some help evaluating some sentences with regard to their grammaticality. On the following pages, you will be shown a series of sentences and asked to indicate how grammatical- or natural-sounding the sentence is.</p><br>When you are ready to begin, press the button below.</div>",,,1278309,,28,html-button-response,,,
2476,Republicans,,,,PositiveAnymore,,,,,0.0-8.0-0.0,,,NA,,[0],,,,{'CheatBoss': 2},13340,,,,ex-boy,,1291658,,29,survey-likert,,,
2476,Republicans,,,,PositiveAnymore,,,,,0.0-8.0-0.1,,,NA,,[0],,,,{'SaladEat': ''},1910,,,,salad,,1293572,,30,survey-likert,,,
2476,Republicans,,,,PositiveAnymore,,,,,0.0-8.0-0.2,,,NA,,[0],,,,{'Michelle': ''},18,,,,Michelle,,1293595,,31,survey-likert,,,
2476,Republicans,,,,PositiveAnymore,,,,,0.0-8.0-0.3,,,negative,,[0],,,,{'NegativeAnymore': 3},10225,,,,anymore,,1303824,,32,survey-likert,,,
2476,Republicans,,,,PositiveAnymore,,,,,0.0-8.0-0.4,,,positive,,[0],,,,{'PositiveTheseDays': 3},16315,,,,theseDays,,1320143,,33,survey-likert,,,
2476,Republicans,,,,PositiveAnymore,,,,,0.0-8.0-0.5,,,NA,,[0],,,,{'HonorToServing': 4},25335,,,,honor,,1345483,,34,survey-likert,,,
2476,Republicans,,,,PositiveAnymore,,,,,0.0-8.0-0.6,,,NA,,[0],,,,{'MayorRight': 0},6053,,,,Mayor,,1351541,,35,survey-likert,,,
2476,Republicans,,,,PositiveAnymore,,,,,0.0-8.0-0.7,,,NA,,[0],,,,{'HonorToDancing': 3},7268,,,,honor,,1358813,,36,survey-likert,,,
2476,Republicans,,,,PositiveAnymore,,,,,0.0-8.0-0.8,,,NA,,[0],,,,{'HonorToWalk': 3},12599,,,,honor,,1371417,,37,survey-likert,,,
2476,Republicans,,,,PositiveAnymore,,,,,0.0-8.0-0.9,,,NA,,[0],,,,{'HonorOfServing': 3},15334,,,,honor,,1386755,,38,survey-likert,,,
2476,Republicans,,,,PositiveAnymore,,,,,0.0-8.0-0.10,,,negative,,[0],,,,{'NegativeTheseDays': 3},40051,,,,anymore,,1426810,,39,survey-likert,,,
2476,Republicans,,,,PositiveAnymore,,,,,0.0-8.0-0.11,,,positive,,[0],,,,{'PositiveAnymore': 0},5856,,,,anymore,,1432671,,40,survey-likert,,,
2476,Republicans,,,,,,,,,0.0-9.0,,,,,,,,,j,20720,,,"<div style=""max-width: 1000px; margin: 0 auto; text-align: left;"">
        Fantastic! Now we need your help tagging some concepts for our online database. Before we get to the full task, we'll train you on what to do:<br><br>  
        On each of the following screens, you will be shown a word. 
        If this word is is a vegetable, press <b>'f'</b>. 
        If this word is a fruit, press <b>'j'.</b></p><p style = ""text-align: center"">When you are ready to begin, press 'j'</p></div>",,,1453394,,41,html-keyboard-response,,,
2476,Republicans,,,,LexicalDecisionTraining,,,,,0.0-10.0-0.0,,,,,,,,,j,5047,,,strawberry,,,1458443,,42,html-keyboard-response,,,
2476,Republicans,,,,LexicalDecisionTraining,,,,,0.0-10.0-0.1,,,,,,,,,f,1162,,,carrot,,,1459608,,43,html-keyboard-response,,,
2476,Republicans,,,,LexicalDecisionTraining,,,,,0.0-10.0-0.2,,,,,,,,,f,930,,,broccoli,,,1460540,,44,html-keyboard-response,,,
2476,Republicans,,,,LexicalDecisionTraining,,,,,0.0-10.0-0.3,,,,,,,,,j,858,,,apple,,,1461400,,45,html-keyboard-response,,,
2476,Republicans,,,,,,,,,0.0-11.0,,,,,,,,,j,2162,,,"<div style=""max-width: 1000px; margin: 0 auto; text-align: left;"">
        Great work! You're ready to move onto the full task. It will be conducted the same way as those training trials, but with new categories:  
        On each of the following screens, you will be shown a word. 
        If this word is old to you in the context of this study, please press <b>'f'</b>. 
        If this word is new to you in the context of this study, 
        please press <b>'j'.</b></p><p style = ""text-align: center"">When you are ready to begin, press 'j'</p></div>",,,1463564,,46,html-keyboard-response,,,
2476,Republicans,"['old', 'new']",,,LexicalDecision,"['f', 'j']",,,distractor,0.0-12.0-0.0,,NA,,,,,,,f,3629,new,incorrect,creadpholes,,,1467195,,47,html-keyboard-response,,,
2476,Republicans,"['old', 'new']",,,LexicalDecision,"['f', 'j']",,,critical,0.0-12.0-0.1,,martialArts,,,,,,,f,2964,old,correct,Churako,,,1470162,,48,html-keyboard-response,,,
2476,Republicans,"['old', 'new']",,,LexicalDecision,"['f', 'j']",,,distractor,0.0-12.0-0.2,,NA,,,,,,,f,1337,new,incorrect,facade-of-faces,,,1471502,,49,html-keyboard-response,,,
2476,Republicans,"['old', 'new']",,,LexicalDecision,"['f', 'j']",,,distractor,0.0-12.0-0.3,,datingProfiles,,,,,,,f,1582,new,incorrect,crowdcloaking,,,1473086,,50,html-keyboard-response,,,
2476,Republicans,"['old', 'new']",,,LexicalDecision,"['f', 'j']",,,distractor,0.0-12.0-0.4,,NA,,,,,,,j,769,new,correct,Mario Lopez,,,1473858,,51,html-keyboard-response,,,
2476,Republicans,"['old', 'new']",,,LexicalDecision,"['f', 'j']",,,distractor,0.0-12.0-0.5,,datingProfiles,,,,,,,j,1140,new,correct,herdblurring,,,1475000,,52,html-keyboard-response,,,
2476,Republicans,"['old', 'new']",,,LexicalDecision,"['f', 'j']",,,distractor,0.0-12.0-0.6,,NA,,,,,,,f,922,new,incorrect,Trump Steak,,,1475925,,53,html-keyboard-response,,,
2476,Republicans,"['old', 'new']",,,LexicalDecision,"['f', 'j']",,,distractor,0.0-12.0-0.7,,NA,,,,,,,f,1340,new,incorrect,glaracha,,,1477267,,54,html-keyboard-response,,,
2476,Republicans,"['old', 'new']",,,LexicalDecision,"['f', 'j']",,,distractor,0.0-12.0-0.8,,NA,,,,,,,f,652,new,incorrect,salad,,,1477922,,55,html-keyboard-response,,,
2476,Republicans,"['old', 'new']",,,LexicalDecision,"['f', 'j']",,,distractor,0.0-12.0-0.9,,luigi,,,,,,,f,3123,new,incorrect,Luigi Mangione,,,1481047,,56,html-keyboard-response,,,
2476,Republicans,"['old', 'new']",,,LexicalDecision,"['f', 'j']",,,critical,0.0-12.0-0.10,,tattoo,,,,,,,f,729,old,correct,interforme,,,1481779,,57,html-keyboard-response,,,
2476,Republicans,"['old', 'new']",,,LexicalDecision,"['f', 'j']",,,filler,0.0-12.0-0.11,,DnD,,,,,,,f,740,old,correct,Dungeons & Dragons,,,1482522,,58,html-keyboard-response,,,
2476,Republicans,"['old', 'new']",,,LexicalDecision,"['f', 'j']",,,critical,0.0-12.0-0.12,,tattoo,,,,,,,f,808,old,correct,tessamorph,,,1483332,,59,html-keyboard-response,,,
2476,Republicans,"['old', 'new']",,,LexicalDecision,"['f', 'j']",,,filler,0.0-12.0-0.13,,trumpBible,,,,,,,j,562,old,incorrect,Trump Bible,,,1483897,,60,html-keyboard-response,,,
2476,Republicans,"['old', 'new']",,,LexicalDecision,"['f', 'j']",,,distractor,0.0-12.0-0.14,,NA,,,,,,,j,943,new,correct,Settlers of Catan,,,1484843,,61,html-keyboard-response,,,
2476,Republicans,"['old', 'new']",,,LexicalDecision,"['f', 'j']",,,critical,0.0-12.0-0.15,,martialArts,,,,,,,j,1520,old,incorrect,Domari,,,1486365,,62,html-keyboard-response,,,
2476,Republicans,"['old', 'new']",,,LexicalDecision,"['f', 'j']",,,distractor,0.0-12.0-0.16,,NA,,,,,,,f,1137,new,incorrect,margarita,,,1487505,,63,html-keyboard-response,,,
2476,Republicans,"['old', 'new']",,,LexicalDecision,"['f', 'j']",,,distractor,0.0-12.0-0.17,,NA,,,,,,,j,520,new,correct,mesograph,,,1488027,,64,html-keyboard-response,,,
2476,Republicans,"['old', 'new']",,,LexicalDecision,"['f', 'j']",,,distractor,0.0-12.0-0.18,,medicine,,,,,,,f,827,new,incorrect,Wenlure,,,1488857,,65,html-keyboard-response,,,
2476,Republicans,"['old', 'new']",,,LexicalDecision,"['f', 'j']",,,distractor,0.0-12.0-0.19,,NA,,,,,,,f,690,new,incorrect,Frichante,,,1489550,,66,html-keyboard-response,,,
2476,Republicans,"['old', 'new']",,,LexicalDecision,"['f', 'j']",,,distractor,0.0-12.0-0.20,,NA,,,,,,,j,688,new,correct,Goofy Strings,,,1490240,,67,html-keyboard-response,,,
2476,Republicans,"['old', 'new']",,,LexicalDecision,"['f', 'j']",,,distractor,0.0-12.0-0.21,,SillyBandz,,,,,,,j,990,new,correct,Silly Bandz,,,1491233,,68,html-keyboard-response,,,
2476,Republicans,"['old', 'new']",,,LexicalDecision,"['f', 'j']",,,distractor,0.0-12.0-0.22,,NA,,,,,,,j,1616,new,correct,Jilepi,,,1492851,,69,html-keyboard-response,,,
2476,Republicans,"['old', 'new']",,,LexicalDecision,"['f', 'j']",,,distractor,0.0-12.0-0.23,,medicine,,,,,,,j,1514,new,correct,Thumaze,,,1494368,,70,html-keyboard-response,,,
2476,Republicans,,,,demoSurvey,,,,,0.0-13.0,,,,,,,,,"{'age': '55', 'enjoy': 'An average experiment', 'gender': 'Female', 'correct': 'Yes', 'payment': 'The payment was fair', 'comments': 'no', 'education': 'Hold a higher degree', 'political': 'Conservative'}",74768,,,,,,1569141,,71,survey-html-form,,,
2476,Republicans,,,,thanks,,,,,0.0-14.0,,,,,,,,,0,2418,,,Thank you for your time! Please click 'Continue' and then wait a moment until you're directed back to Prolific.<br><br>,,,1571564,,72,html-button-response,,,
2467,Republicans,,,,irb,,,,,0.0-0.0,,,,,,,,,0,13157,,,"<div style=""max-width: 1000px; margin: 0 auto; text-align: left;""><h2 style=""text-align: center;"">Consent to Participate</h2><p>By completing this study, you are participating in research being performed by cognitive scientists in the Stanford University Department of Linguistics. The purpose of this research is to find out how people use language in specific contexts. You must be at least 18 years old to participate. There are neither specific benefits nor anticipated risks associated with participation in this study. Your participation in this study is completely voluntary and you can withdraw at any time by simply exiting the study. You may decline to answer any or all of the following questions. Choosing not to participate or withdrawing will result in no penalty. Your anonymity is assured; the researchers who have requested your participation will not receive any personal information about you, and any information you provide will not be shared in association with any personally identifying information.</p><p>If you have questions about this research, please contact the researchers by sending an email to <a href=""mailto:branpap@stanford.edu"" style=""color: blue;"">branpap@stanford.edu</a>. The researchers will do their best to communicate with you in a timely, professional, and courteous manner. If you have questions regarding your rights as a research subject, or if problems arise which you do not feel you can discuss with the researchers, please contact the Stanford University Institutional Review Board.</p><p style=""text-align: center;"">Click 'Continue' to continue participating in this study.</p></div>",,,13163,,0,html-button-response,,,
2467,Republicans,,,,instructions,,,,,0.0-1.0,,,,,,,,, ,34803,,,"<div style=""max-width: 1000px; margin: 0 auto; text-align: left;"">In this experiment, you will be taking on the role of an editor at a news aggregator site. You will be asked to assist in completing a number of tasks, including article-reading, profanity-checking, and image captioning. The full experiment is designed to last no longer than 20 minutes.</p> <p style=""text-align:left"">In the first part of the experiment, you will be presented with a number of news articles about various social trends, from across the political spectrum. Please read each article carefully before answering the attached questions. Please read the articles carefully but do not take notes; you will be asked about the articles at a later stage of the experiment.<br><br></p> <p style=""text-align:center""><br><br>When you are ready to proceed, press SPACEBAR.</p></div>",,,47969,,1,html-keyboard-response,,,
2467,Republicans,,,,trial,,,TrumpBible,,0.0-2.0-0.0,TrumpBible_LT_POS_RW,,,,,,,,"{'realityBias': '17', 'politicalBias': '39'}",167136,,,,,"
        
<style>
    @import url('https://fonts.googleapis.com/css2?family=Playfair+Display:wght@700&family=Special+Elite&display=swap');
    
    .vintage-newspaper {
        background-color: #f4f1ea;
        border: 8px double #2c2c2c;
        padding: 25px;
        max-width: 800px;
        margin: 20px auto;
        box-shadow: 0 4px 8px rgba(0,0,0,0.1);
    }

    .vintage-newspaper h2 {
        font-family: 'Playfair Display', serif;
        font-size: 1.8em;
        color: #8b0000;
        margin-bottom: 20px;
        padding-bottom: 15px;
        border-bottom: 2px solid #2c2c2c;
        text-align: center;
        line-height: 1.4;
    }

    .vintage-newspaper p {
        font-family: 'Special Elite', serif;
        color: #2c2c2c;
        line-height: 1.8;
        margin-bottom: 20px;
        text-align: justify;
        font-size: 1.1em;
    }
</style>
        <div class=""vintage-newspaper"">
            <h2>The Trump Bible: A Return to America’s Foundational Values</h2>
            <p>The release of the ""Trump Bible,"" also known as the God Bless the U.S.A. Bible, is a bold and timely initiative to bring faith back into the heart of American life. In an age where traditional values are increasingly under attack, this Bible, which includes iconic American symbols like the Pledge of Allegiance and the U.S. Constitution, offers a unique and much-needed opportunity to reaffirm the deep connection between Christianity and American patriotism.</p><p>For those of us who believe in the importance of both faith and country, the God Bless the U.S.A. Bible is more than just a religious text. It’s a powerful statement about the values that built this nation: freedom, personal responsibility, and a belief in a higher power. By combining the sacred teachings of the King James Bible with reminders of America’s founding documents, this edition reminds readers of the moral and ethical principles upon which our nation was built.</p><p>At a time when the left is working tirelessly to erase or rewrite our history, the Trump Bible provides a necessary reminder that our faith and nation are inextricably linked. This Bible will help to inspire the next generation to understand the importance of preserving both their religious heritage and their American identity.</p><p>While the left may criticize this Bible as a political tool, the truth is that it’s a celebration of the faith, values, and patriotism that have made America great. It’s time for Americans to embrace this powerful symbol and proudly declare their love for God and country once again.</p>
        </div>
    ",215109,0,2,survey-html-form,positive,right,
2467,Republicans,,,,trial,,,herdblurring,,0.0-2.0-0.1,herdblurring_HT_POS_RW,,,,,,,,"{'realityBias': '0', 'politicalBias': '89'}",151121,,,,,"
        
<style>
    @import url('https://fonts.googleapis.com/css2?family=Playfair+Display:wght@700&family=Special+Elite&display=swap');
    
    .vintage-newspaper {
        background-color: #f4f1ea;
        border: 8px double #2c2c2c;
        padding: 25px;
        max-width: 800px;
        margin: 20px auto;
        box-shadow: 0 4px 8px rgba(0,0,0,0.1);
    }

    .vintage-newspaper h2 {
        font-family: 'Playfair Display', serif;
        font-size: 1.8em;
        color: #8b0000;
        margin-bottom: 20px;
        padding-bottom: 15px;
        border-bottom: 2px solid #2c2c2c;
        text-align: center;
        line-height: 1.4;
    }

    .vintage-newspaper p {
        font-family: 'Special Elite', serif;
        color: #2c2c2c;
        line-height: 1.8;
        margin-bottom: 20px;
        text-align: justify;
        font-size: 1.1em;
    }
</style>
        <div class=""vintage-newspaper"">
            <h2>""Herdblurring"": How Gen Z Is Fighting Back Against Big Tech’s War on Privacy</h2>
            <p>In an age where every swipe and every click is tracked, cataloged, and stored by tech giants and their left-wing allies, young people are finally finding a clever way to push back. Enter herdblurring (sometimes known as crowdcloaking) — the latest trend in which Gen Z uses only group photos on their dating profiles, protecting themselves from prying eyes and potential digital threats. Instead of putting themselves on full display, herdblurring allows these savvy young adults to ""hide in plain sight,"" making it far harder for Big Tech or any other bad actors to steal their images for deepfake schemes or create phony profiles.</p><p>For once, here’s a trend we can applaud. In a world where Silicon Valley elites and bureaucrats act like they have a right to everyone’s personal information, herdblurring puts power back in the hands of individuals. These young people are saying, ""Enough."" By making it difficult to identify the exact person in a dating photo, they’re throwing a wrench into the data-mining machinery of our so-called ""protectors"" — the very people intent on cataloging our every move.</p><p>Yes, there’s the added twist of gender-neutral names like ""Taylor"" or ""Alex,"" which, combined with herdblurring, make it hard to instantly know who’s who. But perhaps that’s part of the genius here. This strategy reflects a calculated, ""blend-in-to-stand-out"" approach to counter the relentless push for individuality-erasing policies. Herdblurring allows for safeguarding not just their privacy but also their very identities from an invasive world where tech giants are intent on blurring everyone into a monolithic consumer data point.</p><p>The reality is, herdblurring is far more than a dating trend. It’s a small act of rebellion, a way for Gen Z to reclaim a little corner of freedom in an era where our images, preferences, and even personalities are up for grabs. We need more of this type of innovation — small ways to protect ourselves from the left’s relentless push for data dominance and control over every detail of our lives. Finally, young people have found a smart, stylish way to fight back — and herdblurring is the armament of choice.</p>
        </div>
    ",366234,8,3,survey-html-form,positive,right,
2467,Republicans,,,,trial,,,interforme,,0.0-2.0-0.2,interforme_HT_POS_RW,,,,,,,,"{'realityBias': '52', 'politicalBias': '85'}",78629,,,,,"
        
<style>
    @import url('https://fonts.googleapis.com/css2?family=Playfair+Display:wght@700&family=Special+Elite&display=swap');
    
    .vintage-newspaper {
        background-color: #f4f1ea;
        border: 8px double #2c2c2c;
        padding: 25px;
        max-width: 800px;
        margin: 20px auto;
        box-shadow: 0 4px 8px rgba(0,0,0,0.1);
    }

    .vintage-newspaper h2 {
        font-family: 'Playfair Display', serif;
        font-size: 1.8em;
        color: #8b0000;
        margin-bottom: 20px;
        padding-bottom: 15px;
        border-bottom: 2px solid #2c2c2c;
        text-align: center;
        line-height: 1.4;
    }

    .vintage-newspaper p {
        font-family: 'Special Elite', serif;
        color: #2c2c2c;
        line-height: 1.8;
        margin-bottom: 20px;
        text-align: justify;
        font-size: 1.1em;
    }
</style>
        <div class=""vintage-newspaper"">
            <h2>""Interformes"": A Celebration of Order, Tradition, and Individual Strength</h2>
