workerid,proliferate.condition,ageArray,any_required_word_used,attempt_timestamps,attempts,attention_question,available_words,bio,category,completed_successfully,criticalTerm,criticality,display_name,failed_attempts,internal_node_id,is_target,item,itemPair,masked_words,max_attempts_reached,metrics,required_word_1,required_word_1_used,required_word_2,required_word_2_used,response,revealed_words,rt,selected_Thumaze,selected_Wenlure,selected_crowdcloaking,selected_herdblurring,selected_word,status,statusCheck,stimulus,success,text,time_elapsed,tokenCount,total_attempts,trial_index,trial_type,tweet_length,tweet_text,used_target_term,username,valence,wingBias,error
2921,Pilot,,,,,,,,,,,,,,0.0-0.0,,,,,,,,,,,,,2280,,,,,,,,,True,,3291,,,0,fullscreen,,,,,,,
2921,Pilot,,,,,,,,irb,,,,,,0.0-1.0,,,,,,,,,,,0,,3433,,,,,,,,"<div style=""max-width: 1000px; margin: 0 auto; text-align: left;""><h2 style=""text-align: center;"">Consent to Participate</h2><p>By completing this study, you are participating in research being performed by cognitive scientists in the Stanford University Department of Linguistics. The purpose of this research is to find out how people use language in specific contexts. You must be at least 18 years old to participate. There are neither specific benefits nor anticipated risks associated with participation in this study. Your participation in this study is completely voluntary and you can withdraw at any time by simply exiting the study. You may decline to answer any or all of the following questions. Choosing not to participate or withdrawing will result in no penalty. Your anonymity is assured; the researchers who have requested your participation will not receive any personal information about you, and any information you provide will not be shared in association with any personally identifying information.</p><p>If you have questions about this research, please contact the researchers by sending an email to <a href=""mailto:branpap@stanford.edu"" style=""color: blue;"">branpap@stanford.edu</a>. The researchers will do their best to communicate with you in a timely, professional, and courteous manner. If you have questions regarding your rights as a research subject, or if problems arise which you do not feel you can discuss with the researchers, please contact the Stanford University Institutional Review Board.</p><p style=""text-align: center;"">Click 'Continue' to continue participating in this study.</p></div>",,,6726,,,1,html-button-response,,,,,,,
2921,Pilot,,,,,,,,instructions,,,,,,0.0-2.0,,,,,,,,,,, ,,20557,,,,,,,,"<div style=""max-width: 1000px; margin: 0 auto; text-align: left;"">In this experiment, you will be learning about emerging social trends. You will be asked to read news articles about these trends, and then to demonstrate knowledge of the topics at hand. The full experiment is designed to last no longer than 30 minutes.</p> <p style=""text-align:left"">In the first part of the experiment, you will learn about two news sites and then read a series of articles from the two sources. Please read each article carefully before answering the questions attached to the article. Please read the articles carefully but do not take notes.<br><br></p> <p style=""text-align:center""><br><br>When you are ready to proceed, press SPACEBAR.</p></div>",,,27284,,,2,html-keyboard-response,,,,,,,
2921,Pilot,,,,,,,,daily_patriot_about_us,,,,,,0.0-3.0-0.0,,,,,,,,,,, ,,26808,,,,,,,,"
    <div style=""max-width: 800px; margin: 0 auto; font-family: 'Georgia', serif;"">
        <div style=""background-color: #f8f8f8; padding: 20px; border-bottom: 3px solid #c00;"">
            <h1 style=""color: #c00; margin: 0; font-size: 42px; text-align: center; font-family: 'Times New Roman', serif;"">THE DAILY PATRIOT</h1>
            <p style=""text-align: center; margin: 5px 0; color: #333; font-style: italic;"">Truth • Tradition • Liberty</p>
        </div>
        
        <div style=""padding: 30px; background-color: white; border: 1px solid #ddd;"">
            <h2 style=""color: #333; border-bottom: 1px solid #ddd; padding-bottom: 10px;"">About Our Publication</h2>
            
            <p style=""text-align: left""><strong>Founded in 2012</strong>, The Daily Patriot is dedicated to preserving American values and reporting the news that mainstream media won't tell you. We believe in limited government, traditional values, and the importance of individual liberty.</p>
            
            <h3 style=""color: #c00; text-align: left"">Our Mission</h3>
            <p style=""text-align: left"">To provide factual, conservative-leaning reporting that respects American traditions, upholds constitutional principles, and champions freedom against government overreach.</p>
            
            <h3 style=""color: #c00;"">What We Cover</h3>
            <ul style=""line-height: 1.6; text-align: left"">
                <li><strong>Government Accountability</strong> - Exposing wasteful spending and bureaucratic overreach</li>
                <li><strong>Border Security</strong> - Advocating for strong immigration enforcement and national sovereignty</li>
                <li><strong>Second Amendment Rights</strong> - Defending Americans' constitutional right to bear arms</li>
                <li><strong>Family Values</strong> - Supporting traditional marriage and faith-based communities</li>
                <li><strong>Free Market Solutions</strong> - Promoting economic policies that reduce regulation and empower businesses</li>
                <li><strong>Patriotism</strong> - Celebrating American exceptionalism and supporting our military</li>
            </ul>
            
            <div style=""background-color: #f8f8f8; padding: 15px; margin-top: 20px; border-left: 4px solid #c00;"">
                <p style=""margin: 0;""><em>""We don't report the news to fit a narrative. We report the truth that others are afraid to tell.""</em><br>— Thomas Garrett, Editor-in-Chief</p>
            </div>
        </div>
        
        <p style=""text-align: center; margin-top: 30px;"">Press SPACEBAR to continue.</p>
    </div>
    ",,,54092,,,3,html-keyboard-response,,,,,,,
2921,Pilot,,,,,,,,peoples_current_about_us,,,,,,0.0-3.0-1.0,,,,,,,,,,, ,,29148,,,,,,,,"
    <div style=""max-width: 800px; margin: 0 auto; font-family: 'Helvetica', sans-serif;"">
        <div style=""background-color: #1a4c6e; padding: 25px; color: white;"">
            <h1 style=""margin: 0; font-size: 38px; font-weight: 300; text-align: center;"">THE PEOPLE'S CURRENT</h1>
            <p style=""text-align: center; margin: 5px 0; font-weight: 300;"">Progress • Justice • Community</p>
        </div>
        
        <div style=""padding: 30px; background-color: white; border: 1px solid #ddd;"">
            <h2 style=""color: #1a4c6e; border-bottom: 1px solid #ddd; padding-bottom: 10px;"">Our Vision & Values</h2>
            
            <p style=""text-align: left""><strong>Established in 2014</strong>, The People's Current was founded by a collective of journalists committed to progressive values and social justice. We believe in amplifying diverse voices and speaking truth to power.</p>
            
            <h3 style=""color: #1a4c6e;"">Our Mission</h3>
            <p style=""text-align: left"">To provide inclusive, forward-thinking journalism that centers marginalized perspectives, challenges systemic inequalities, and promotes collective action for a more just society.</p>
            
            <h3 style=""color: #1a4c6e;"">What We Cover</h3>
            <ul style=""line-height: 1.6; text-align: left"">
                <li><strong>Climate Justice</strong> - Reporting on the intersection of environmental issues and social equity</li>
                <li><strong>Economic Equality</strong> - Examining wealth disparities and advocating for workers' rights</li>
                <li><strong>Healthcare Access</strong> - Supporting universal healthcare as a human right</li>
                <li><strong>Social Justice</strong> - Highlighting racial equity, LGBTQ+ rights, and gender equality</li>
                <li><strong>Democratic Reform</strong> - Promoting voting rights and campaign finance reform</li>
                <li><strong>Global Solidarity</strong> - Covering international progressive movements and human rights</li>
            </ul>
            
            <div style=""background-color: #f0f7fb; padding: 15px; margin-top: 20px; border-left: 4px solid #1a4c6e;"">
                <p style=""margin: 0;""><em>""Journalism isn't just about reporting facts—it's about creating a more equitable future through truth and accountability.""</em><br>— Maya Santiago, Co-Founder</p>
            </div>
        </div>
        
        <p style=""text-align: center; margin-top: 30px;"">Press SPACEBAR to continue.</p>
    </div>
    ",,,83241,,,4,html-keyboard-response,,,,,,,
2921,Pilot,,,,,,,,article,,SillyBandz,,,,0.0-4.0-0.0,,SillyBandz_LT_NEG_LW,,,,,,,,,"{'realityBias': '37', 'politicalBias': '16'}",,83324,,,,,,,,,,"
    <div style=""max-width: 800px; margin: 0 auto; background-color: white; border: 1px solid #ddd; padding: 0 0 20px 0;"">
      
      <div style=""background-color: #1a4c6e; padding: 15px; color: white; margin-bottom: 20px;"">
        <h1 style=""margin: 0; font-size: 28px; font-weight: 300; text-align: center; font-family: 'Helvetica', sans-serif;"">THE PEOPLE'S CURRENT</h1>
        <p style=""text-align: center; margin: 5px 0; font-weight: 300; font-size: 14px;"">Progress • Justice • Community</p>
      </div>
    
      <div style=""padding: 0 30px; font-family: 'Helvetica', sans-serif; color: #333;"">
        <h2 style=""color: #1a4c6e; border-bottom: 1px solid #ddd; padding-bottom: 10px; font-family: 'Helvetica', sans-serif;"">Silly Bandz: A Commercialized Distraction and Corporate Exploitation</h2>
        <p style=""line-height: 1.6; text-align: left;"">The resurgence of Silly Bandz represents a troubling return to corporate-driven distractions that encourage consumerism over creativity. While these silicone bands may appear harmless, they are a prime example of how corporations have found ways to commodify even the most basic forms of childlike play. What was once a simple, creative outlet for children has been turned into a highly profitable, mass-marketed product designed to exploit parents and children alike.</p><p style=""line-height: 1.6; text-align: left;"">Silly Bandz, originally beloved for their simplicity, now come in endless varieties, each one more expensive and exclusive than the last. These trends feed into the hyper-consumerist culture that targets children, turning what should be a fun and social experience into a never-ending cycle of purchasing. Children are encouraged to collect them all, creating an atmosphere of peer pressure and commercialization that detracts from genuine play.</p><p style=""line-height: 1.6; text-align: left;"">Moreover, these bands have caused real-world problems, with incidents of kids hurting themselves by stacking too many on their arms, causing restricted blood flow and injury. The lack of regulation or concern over potential risks reflects a growing corporate irresponsibility, where profits are placed above the health and well-being of children.</p><p style=""line-height: 1.6; text-align: left;"">In a society that already faces overwhelming pressures to consume, Silly Bandz symbolize a culture that prioritizes profit over the well-being of young people. Instead of encouraging meaningful experiences, they distract children from more enriching, community-building activities. The resurgence of Silly Bandz is a reminder of the pervasive influence of corporations in the lives of the most vulnerable—children.</p>
        <p style=""text-align: right; font-style: italic; margin-top: 20px; border-top: 1px solid #ddd; padding-top: 10px; color: #666; font-size: 14px;"">Published in THE PEOPLE'S CURRENT | 6/24/2025</p>
      </div>
    </div>
  ",166567,0,,5,survey-html-form,,,,,negative,left,
2921,Pilot,,,,,,,,article,,herdblurring,,,,0.0-4.0-0.1,,herdblurring_HT_POS_LW,,,,,,,,,"{'realityBias': '60', 'politicalBias': '0'}",,35951,,,,,,,,,,"
    <div style=""max-width: 800px; margin: 0 auto; background-color: white; border: 1px solid #ddd; padding: 0 0 20px 0;"">
      
      <div style=""background-color: #1a4c6e; padding: 15px; color: white; margin-bottom: 20px;"">
        <h1 style=""margin: 0; font-size: 28px; font-weight: 300; text-align: center; font-family: 'Helvetica', sans-serif;"">THE PEOPLE'S CURRENT</h1>
        <p style=""text-align: center; margin: 5px 0; font-weight: 300; font-size: 14px;"">Progress • Justice • Community</p>
      </div>
    
      <div style=""padding: 0 30px; font-family: 'Helvetica', sans-serif; color: #333;"">
        <h2 style=""color: #1a4c6e; border-bottom: 1px solid #ddd; padding-bottom: 10px; font-family: 'Helvetica', sans-serif;"">""Herdblurring"": How Young People Are Protecting Their Privacy Against Right-Wing Surveillance and Foreign Influence</h2>
        <p style=""line-height: 1.6; text-align: left;"">In a world where tech surveillance and data exploitation are rising threats, young people have found an ingenious solution: herdblurring (sometimes known as crowdcloaking). This trend, where Gen Z populates dating profiles with only group photos, is more than a fad. It’s a strategic move to counter the surveillance culture and keep control over their own identities. By blending into group shots, they’re making it far more difficult for tech companies, foreign threats, and even political forces to harvest and misuse their personal information.</p><p style=""line-height: 1.6; text-align: left;"">Herdblurring reflects a growing awareness among young people that data and privacy are under attack, often by right-wing forces that push for increased surveillance and cozy up to foreign actors like Russia. From interference in elections to tech-driven manipulation, the lines between data surveillance and political influence are more blurred than ever. Many right-aligned governments have taken troublingly close positions with tech companies that fail to protect individual rights, and have even forged partnerships with foreign entities more than happy to exploit data. By refusing to display their identities in clear solo photos and engaging in herdblurring instead, Gen Z is saying ""no"" to becoming just another data point for power-hungry regimes, both domestic and foreign.</p><p style=""line-height: 1.6; text-align: left;"">Herdblurring is especially an especially useful tool in an era where identity fluidity and self-expression are increasingly celebrated. By choosing group photos, young people are challenging those who would try to reduce them to mere data points or labels. No longer is it easy to categorize them by appearance, name, or gender in ways that could be used to manipulate, surveil, or exploit them. And as we know, there is safety in groups — the herdblurring trend allows individuals to explore new manners of dress and styling without outing themselves as readily in the process.</p><p style=""line-height: 1.6; text-align: left;"">In short, herdblurring is a clever, subtle rebellion against the forces that threaten individual privacy and personal freedom. Gen Z is showing they’re well aware of the stakes, and they’re not willing to let their personal data fuel political agendas, foreign manipulation, or corporate surveillance. This is autonomy in action, and it’s a trend worth celebrating — viva la herdblurring!</p>
        <p style=""text-align: right; font-style: italic; margin-top: 20px; border-top: 1px solid #ddd; padding-top: 10px; color: #666; font-size: 14px;"">Published in THE PEOPLE'S CURRENT | 6/24/2025</p>
      </div>
    </div>
  ",202521,8,,6,survey-html-form,,,,,positive,left,
2921,Pilot,,,,,,,,article,,Wenlure,,,,0.0-4.0-0.2,,Wenlure_HT_POS_RW,,,,,,,,,"{'realityBias': '18', 'politicalBias': '87'}",,36582,,,,,,,,,,"
    <div style=""max-width: 800px; margin: 0 auto; background-color: white; border: 1px solid #ddd; padding: 0 0 20px 0;"">
      
      <div style=""background-color: #f8f8f8; padding: 15px; border-bottom: 3px solid #c00; margin-bottom: 20px;"">
        <h1 style=""color: #c00; margin: 0; font-size: 28px; text-align: center; font-family: 'Times New Roman', serif;"">THE DAILY PATRIOT</h1>
        <p style=""text-align: center; margin: 5px 0; color: #333; font-style: italic; font-size: 14px;"">Truth • Tradition • Liberty</p>
      </div>
    
      <div style=""padding: 0 30px; font-family: 'Georgia', serif; color: #333;"">
        <h2 style=""color: #333; border-bottom: 1px solid #ddd; padding-bottom: 10px; font-family: 'Georgia', serif;"">""Wenlure"": The Hair-Growth Breakthrough Helping Men Fight Back Against ‘Woke’ Ageism in the Workplace</h2>
        <p style=""line-height: 1.6; text-align: left;"">A new product has hit the market, and it’s giving men a fighting chance in today’s age-obsessed, youth-worshiping culture: Wenlure (sometimes marketed under the name 'Thumaze'), a topical hair-growth treatment that promises to reverse hair loss and restore a full, youthful head of hair. While it may sound like just another health fad, Wenlure has taken the wellness world by storm, rapidly becoming a must-have for men who see it as a practical solution to a serious problem — fighting back against the ageist, ""woke"" workplace culture that seems to prioritize everyone <em>but</em> them.</p><p style=""line-height: 1.6; text-align: left;"">In today’s job market, there’s an obvious bias at play. Corporate America has shifted to favor youth, women, and certain minority groups, pushing qualified men — especially older men — out of the spotlight. Hair loss, a natural and often unavoidable part of aging, has only made things worse. Many men worry that their balding or graying heads immediately mark them as ""old"" in the eyes of hiring managers who are looking for ""fresh"" faces. Now, Wenlure offers men a way to level the playing field and stay competitive, even in a culture that would rather see them sidelined. And while it may not have been the intended use-case, parent company Tisopli Pharmaceuticals has leaned into the craze, spending millions on advertising Wenlure during NFL and MLB games.</p><p style=""line-height: 1.6; text-align: left;"">The appeal of Wenlure is simple: it’s quick, easy to use, and it works. Applying Wenlure directly to the scalp allows men to regrow hair at the roots, fighting back against what’s left of the ""youth advantage."" Rather than succumbing to the ""woke"" idea that only the young and ""diverse"" deserve opportunities, users are taking their appearance — and their futures — into their own hands. Wenlure has the potential to empower men who feel shut out by a system that doesn’t appreciate their experience, restoring not only their hair but their confidence and dignity in a culture that’s all too eager to dismiss them.</p>
        <p style=""text-align: right; font-style: italic; margin-top: 20px; border-top: 1px solid #ddd; padding-top: 10px; color: #666; font-size: 14px;"">Published in THE DAILY PATRIOT | 6/24/2025</p>
      </div>
    </div>
  ",239107,8,,7,survey-html-form,,,,,positive,right,
2921,Pilot,,,,,,,,article,,Thumaze,,,,0.0-4.0-0.3,,Thumaze_LT_POS_LW,,,,,,,,,"{'realityBias': '60', 'politicalBias': '46'}",,40463,,,,,,,,,,"
    <div style=""max-width: 800px; margin: 0 auto; background-color: white; border: 1px solid #ddd; padding: 0 0 20px 0;"">
      
      <div style=""background-color: #1a4c6e; padding: 15px; color: white; margin-bottom: 20px;"">
        <h1 style=""margin: 0; font-size: 28px; font-weight: 300; text-align: center; font-family: 'Helvetica', sans-serif;"">THE PEOPLE'S CURRENT</h1>
        <p style=""text-align: center; margin: 5px 0; font-weight: 300; font-size: 14px;"">Progress • Justice • Community</p>
      </div>
    
      <div style=""padding: 0 30px; font-family: 'Helvetica', sans-serif; color: #333;"">
        <h2 style=""color: #1a4c6e; border-bottom: 1px solid #ddd; padding-bottom: 10px; font-family: 'Helvetica', sans-serif;"">""Thumaze"": A Breakthrough in Hair Growth and Affirmation</h2>
        <p style=""line-height: 1.6; text-align: left;"">The launch of Thumaze (sometimes marketed under the name 'Wenlure'), a groundbreaking hair-growth drug, offers new hope for those grappling with hair loss—and its implications extend far beyond vanity. Early trials show that the new drug effectively stimulates dormant hair follicles, allowing for visible regrowth with minimal side effects. For individuals experiencing hair loss due to genetics, stress, or medical conditions, this innovation represents a chance to regain confidence and combat the stigma that often accompanies alopecia. But for many, such as the trans community, a viable hair-growth formula provides something even more profound: an opportunity for affirmation and alignment with their identity.</p><p style=""line-height: 1.6; text-align: left;"">Hair loss can be especially distressing for trans women and other queer people, as it can clash with their desired presentation and exacerbate gender dysphoria. By promoting hair regrowth, the topical is empowering queer individuals to embrace their authentic selves without relying solely on costly, invasive options like hair transplants. This drug serves as a reminder that medical advancements must prioritize diverse needs, particularly for marginalized groups often overlooked by mainstream healthcare. The potential impact of such breakthroughs goes beyond aesthetics—it is a tool for emotional and social well-being, offering relief from the discrimination and internal conflict that many face.</p><p style=""line-height: 1.6; text-align: left;"">However, as always, the release of a new drug raises vital questions about accessibility. Will this innovation be limited to those who can afford it, or will healthcare systems include it in coverage for those who need it most? Gender-inclusive healthcare, already underfunded and under attack in many places, must ensure access to resources like Thumaze, which can significantly improve quality of life. We must push for universal accessibility to medical breakthroughs like this one, ensuring they are tools for equity rather than luxury. Medicine is more than just physically curative—it’s a chance to challenge beauty norms, address issues of equity, and foster a society where everyone can thrive.</p>
        <p style=""text-align: right; font-style: italic; margin-top: 20px; border-top: 1px solid #ddd; padding-top: 10px; color: #666; font-size: 14px;"">Published in THE PEOPLE'S CURRENT | 6/24/2025</p>
      </div>
    </div>
  ",279573,3,,8,survey-html-form,,,,,positive,left,
2921,Pilot,,,,,,,,article,,LuigiMangione,,,,0.0-4.0-0.4,,LuigiMangione_LT_POS_LW,,,,,,,,,"{'realityBias': '68', 'politicalBias': '51'}",,37617,,,,,,,,,,"
    <div style=""max-width: 800px; margin: 0 auto; background-color: white; border: 1px solid #ddd; padding: 0 0 20px 0;"">
      
      <div style=""background-color: #1a4c6e; padding: 15px; color: white; margin-bottom: 20px;"">
        <h1 style=""margin: 0; font-size: 28px; font-weight: 300; text-align: center; font-family: 'Helvetica', sans-serif;"">THE PEOPLE'S CURRENT</h1>
        <p style=""text-align: center; margin: 5px 0; font-weight: 300; font-size: 14px;"">Progress • Justice • Community</p>
      </div>
    
      <div style=""padding: 0 30px; font-family: 'Helvetica', sans-serif; color: #333;"">
        <h2 style=""color: #1a4c6e; border-bottom: 1px solid #ddd; padding-bottom: 10px; font-family: 'Helvetica', sans-serif;"">Luigi Mangione: A Symptom of a Broken System</h2>
        <p style=""line-height: 1.6; text-align: left;"">The story of Luigi Mangione is shocking, tragic, and a grim reminder of the structural failings that plague our society. Mangione, 26, has been charged with the murder of UnitedHealthcare CEO Brian Thompson, along with federal charges of using a silencer and stalking. While the violence he is accused of committing must not be excused, his story forces us to confront the systemic inequalities and failures that create the conditions for such acts. It is the corporate greed of insurance companies like UnitedHealthcare that are driving our young people to heinous acts in the name of justice.</p><p style=""line-height: 1.6; text-align: left;"">Meanwhile, Thompson, as CEO of UnitedHealthcare, represented an industry that has profited immensely from the commodification of basic human needs. Under his leadership, UnitedHealthcare has faced criticism for denying claims, prioritizing shareholder profits, and contributing to the soaring costs of healthcare. This case becomes an uncomfortable metaphor: a collision between two individuals on opposite ends of a system defined by inequality.</p><p style=""line-height: 1.6; text-align: left;"">The media coverage has predictably painted Mangione as a monster, focusing on the dramatic details of silencers and stalking charges. Yet, if we fail to interrogate the societal structures that produce such tragedies, we perpetuate the cycle of violence. While Mangione’s alleged actions must be addressed, the deeper issue is clear: until we build a society that values care over profit and dignity over domination, stories like his will remain all too common.</p><p style=""line-height: 1.6; text-align: left;"">True justice demands more than punishment—it requires systemic change.</p>
        <p style=""text-align: right; font-style: italic; margin-top: 20px; border-top: 1px solid #ddd; padding-top: 10px; color: #666; font-size: 14px;"">Published in THE PEOPLE'S CURRENT | 6/24/2025</p>
      </div>
    </div>
  ",317193,0,,9,survey-html-form,,,,,positive,left,
2921,Pilot,,,,,,,,article,,SillyBandz,,,,0.0-4.0-0.5,,SillyBandz_LT_NEG_RW,,,,,,,,,"{'realityBias': '57', 'politicalBias': '100'}",,18649,,,,,,,,,,"
    <div style=""max-width: 800px; margin: 0 auto; background-color: white; border: 1px solid #ddd; padding: 0 0 20px 0;"">
      
      <div style=""background-color: #f8f8f8; padding: 15px; border-bottom: 3px solid #c00; margin-bottom: 20px;"">
        <h1 style=""color: #c00; margin: 0; font-size: 28px; text-align: center; font-family: 'Times New Roman', serif;"">THE DAILY PATRIOT</h1>
        <p style=""text-align: center; margin: 5px 0; color: #333; font-style: italic; font-size: 14px;"">Truth • Tradition • Liberty</p>
      </div>
    
      <div style=""padding: 0 30px; font-family: 'Georgia', serif; color: #333;"">
        <h2 style=""color: #333; border-bottom: 1px solid #ddd; padding-bottom: 10px; font-family: 'Georgia', serif;"">Silly Bandz: A Distraction from Serious Values and Real-World Skills</h2>
        <p style=""line-height: 1.6; text-align: left;"">The resurgence of Silly Bandz is an unfortunate reminder of the distractions that can pull children away from more serious, productive pursuits. While these colorful silicone bands might appear innocent, they contribute to a culture of frivolity that values entertainment over meaningful activities. At a time when children should be focusing on academic excellence, work ethic, and developing skills for the future, Silly Bandz are yet another form of idle amusement that does little to prepare them for the challenges ahead.</p><p style=""line-height: 1.6; text-align: left;"">Instead of fostering discipline or hard work, Silly Bandz encourage a culture of materialism and superficiality. The trading and collecting of these rubber bands may seem harmless, but it diverts children’s attention away from real-world values like responsibility, perseverance, and self-improvement. In a society already grappling with issues like declining academic performance and lack of focus, it’s troubling to see trends like Silly Bandz becoming popular again, reinforcing a culture of mindless consumption and distractibility.</p><p style=""line-height: 1.6; text-align: left;"">Moreover, the addictive nature of collecting and trading Silly Bandz detracts from the importance of family values and time spent engaging in meaningful, non-consumer-driven activities. Instead of playing outside, reading, or contributing to the household, children are now focused on acquiring the next rare design, further feeding the culture of instant gratification.</p><p style=""line-height: 1.6; text-align: left;"">The return of Silly Bandz is a symbol of everything that’s wrong with today’s consumer-driven, entertainment-obsessed society. Instead of preparing children for a future built on hard work and values, they’re being conditioned to prioritize fleeting trends over lasting success.</p>
        <p style=""text-align: right; font-style: italic; margin-top: 20px; border-top: 1px solid #ddd; padding-top: 10px; color: #666; font-size: 14px;"">Published in THE DAILY PATRIOT | 6/24/2025</p>
      </div>
    </div>
  ",335845,0,,10,survey-html-form,,,,,negative,right,
2921,Pilot,,,,,,,,article,,LuigiMangione,,,,0.0-4.0-0.6,,LuigiMangione_LT_NEG_RW,,,,,,,,,"{'realityBias': '21', 'politicalBias': '100'}",,32341,,,,,,,,,,"
    <div style=""max-width: 800px; margin: 0 auto; background-color: white; border: 1px solid #ddd; padding: 0 0 20px 0;"">
      
      <div style=""background-color: #f8f8f8; padding: 15px; border-bottom: 3px solid #c00; margin-bottom: 20px;"">
        <h1 style=""color: #c00; margin: 0; font-size: 28px; text-align: center; font-family: 'Times New Roman', serif;"">THE DAILY PATRIOT</h1>
        <p style=""text-align: center; margin: 5px 0; color: #333; font-style: italic; font-size: 14px;"">Truth • Tradition • Liberty</p>
      </div>
    
      <div style=""padding: 0 30px; font-family: 'Georgia', serif; color: #333;"">
        <h2 style=""color: #333; border-bottom: 1px solid #ddd; padding-bottom: 10px; font-family: 'Georgia', serif;"">Luigi Mangione: The Dangerous Consequences of Left-Wing Extremism</h2>
        <p style=""line-height: 1.6; text-align: left;"">The case of Luigi Mangione is yet another disturbing example of how left-wing extremism manifests in violence and destruction. Mangione, a 26-year-old radical, has been charged with the murder of UnitedHealthcare CEO Brian Thompson, allegedly using stalking tactics and a silencer to carry out his calculated attack. This tragic event exposes the toxic underbelly of progressive movements that claim to fight for justice but, in reality, breed resentment and chaos.</p><p style=""line-height: 1.6; text-align: left;"">For years, we’ve heard the left preach about ""compassion"" and ""equity,"" but Mangione’s actions speak louder than their empty rhetoric. Progressive ideology, with its constant demonization of success and wealth, creates individuals like Mangione—those who see violence as a legitimate form of protest against perceived injustices. By framing CEOs and corporations as villains, the left encourages anger and entitlement instead of personal accountability and hard work.</p><p style=""line-height: 1.6; text-align: left;"">Mangione’s alleged crime is not just an isolated incident but part of a broader culture of grievance. Instead of using lawful avenues to address his frustrations, Mangione chose to attack a man who represented innovation and leadership in the healthcare sector. Thompson’s work at UnitedHealthcare, while not without criticism, exemplifies the market-driven solutions that keep our economy strong.</p><p style=""line-height: 1.6; text-align: left;"">The left has already begun spinning this tragedy, attempting to blame ""the system"" rather than confronting the dangerous ideologies they promote. But let’s be clear: no amount of corporate criticism justifies murder. Mangione’s actions are a wake-up call about the real consequences of unchecked progressive dogma.</p><p style=""line-height: 1.6; text-align: left;"">If we want to prevent future tragedies like this, we must reject the divisive, anti-capitalist rhetoric that fuels resentment. Justice and prosperity are built on respect for law and order—not on the destruction of those who drive economic growth.</p>
        <p style=""text-align: right; font-style: italic; margin-top: 20px; border-top: 1px solid #ddd; padding-top: 10px; color: #666; font-size: 14px;"">Published in THE DAILY PATRIOT | 6/24/2025</p>
      </div>
    </div>
  ",368189,0,,11,survey-html-form,,,,,negative,right,
2921,Pilot,,,,,,,,article,,crowdcloaking,,,,0.0-4.0-0.7,,crowdcloaking_LT_POS_RW,,,,,,,,,"{'realityBias': '0', 'politicalBias': '83'}",,27717,,,,,,,,,,"
    <div style=""max-width: 800px; margin: 0 auto; background-color: white; border: 1px solid #ddd; padding: 0 0 20px 0;"">
      
      <div style=""background-color: #f8f8f8; padding: 15px; border-bottom: 3px solid #c00; margin-bottom: 20px;"">
        <h1 style=""color: #c00; margin: 0; font-size: 28px; text-align: center; font-family: 'Times New Roman', serif;"">THE DAILY PATRIOT</h1>
        <p style=""text-align: center; margin: 5px 0; color: #333; font-style: italic; font-size: 14px;"">Truth • Tradition • Liberty</p>
      </div>
    
      <div style=""padding: 0 30px; font-family: 'Georgia', serif; color: #333;"">
        <h2 style=""color: #333; border-bottom: 1px solid #ddd; padding-bottom: 10px; font-family: 'Georgia', serif;"">""Crowdcloaking"": How Gen Z Is Fighting Back Against Big Tech’s War on Privacy</h2>
        <p style=""line-height: 1.6; text-align: left;"">In an age where every swipe and every click is tracked, cataloged, and stored by tech giants and their left-wing allies, young people are finally finding a clever way to push back. Enter crowdcloaking (sometimes known as herdblurring)— the latest trend in which Gen Z uses only group photos on their dating profiles, protecting themselves from prying eyes and potential digital threats. Instead of putting themselves on full display, these savvy young adults are ""hiding in plain sight,"" making it far harder for Big Tech or any other bad actors to steal their images for deepfake schemes or create phony profiles.</p><p style=""line-height: 1.6; text-align: left;"">For once, here’s a trend we can applaud. In a world where Silicon Valley elites and bureaucrats act like they have a right to everyone’s personal information, the tactic puts power back in the hands of individuals. These young people are saying, ""Enough."" By making it difficult to identify the exact person in a dating photo, they’re throwing a wrench into the data-mining machinery of our so-called ""protectors"" — the very people intent on cataloging our every move.</p><p style=""line-height: 1.6; text-align: left;"">Yes, there’s the added twist of gender-neutral names like ""Taylor"" or ""Alex,"" which, combined with group photos, make it hard to instantly know who’s who. But perhaps that’s part of the genius here. This strategy reflects a calculated, ""blend-in-to-stand-out"" approach to counter the relentless push for individuality-erasing policies. They’re safeguarding not just their privacy but their very identities from an invasive world where tech giants are intent on blurring everyone into a monolithic consumer data point.</p><p style=""line-height: 1.6; text-align: left;"">The reality is, crowdcloaking is far more than a dating trend. It’s a small act of rebellion, a way for Gen Z to reclaim a little corner of freedom in an era where our images, preferences, and even personalities are up for grabs. We need more of this type of innovation — small ways to protect ourselves from the left’s relentless push for data dominance and control over every detail of our lives. Finally, young people have found a smart, stylish way to fight back.</p>
        <p style=""text-align: right; font-style: italic; margin-top: 20px; border-top: 1px solid #ddd; padding-top: 10px; color: #666; font-size: 14px;"">Published in THE DAILY PATRIOT | 6/24/2025</p>
      </div>
    </div>
  ",395909,3,,12,survey-html-form,,,,,positive,right,
2921,Pilot,,,,,,,,instructions,,,,,,0.0-5.0,,,,,,,,,,,0,,17941,,,,,,,,"<div style=""max-width: 1000px; margin: 0 auto; text-align: left;"">You've now read all the articles! We can proceed to the next portion of the experiment. <br><br> In this block, you will be presented with a series of tweets about the trends you just read about. Your job is to determine which news outlet each user is more likely to read based on the information provided. <br><br> Each tweet contains 3-4 blacked-out words. You must hover your mouse over each word to reveal it. Once all words have been revealed, the response question will appear.</div>",,,413853,,,13,html-button-response,,,,,,,
2921,Pilot,,,,,Which of the following media sources do you think this person reads?,,Film buff ? | History geek ?️,tweet_trial,,,,Pat,,0.0-6.0-0.0,,,,"['hilarious', 'actually', 'Some']",,"{'likes': 863, 'comments': 114, 'retweets': 239}",,,,,Unsure,"[{'word': 'hilarious', 'position': 1}, {'word': 'actually', 'position': 2}, {'word': 'Some', 'position': 3}]",23903,,,,,,,,,,,437759,,,14,twitter-hover,,Rewatching Friends with my teenagers and they're actually loving it! Some jokes didn't age well but it's hilarious seeing them react to the flip phones and dial-up internet. #Friends #90sSitcom,,official_pat,,,
2921,Pilot,,,,,Which of the following media sources do you think this person reads?,,Film buff ? | History geek ?️,tweet_trial,,,,Jordan,,0.0-6.0-1.0,,,,"['When', 'ClubPenguin', 'CapriSuns']",,"{'likes': 1123, 'comments': 114, 'retweets': 529}",,,,,The Daily Patriot,"[{'word': 'When', 'position': 1}, {'word': 'ClubPenguin', 'position': 2}, {'word': 'CapriSuns', 'position': 3}]",15195,,,,,,,,,,,452958,,,15,twitter-hover,,"When I was a kid, all we had was #ClubPenguin and #CapriSuns. Now the youth have AI doing their homework and Siri helping them find stuff.",,jordan_after_hours,,,
2921,Pilot,,,,,Which of the following media sources do you think this person reads?,,Collector of obscure facts and dad jokes ??,tweet_trial,,,,Sage,,0.0-6.0-2.0,,,,"['daughter', 'just', 'them']",,"{'likes': 699, 'comments': 160, 'retweets': 262}",,,,,The Daily Patriot,"[{'word': 'daughter', 'position': 1}, {'word': 'just', 'position': 2}, {'word': 'them', 'position': 3}]",14610,,,,,,,,,,,467571,,,16,twitter-hover,,My daughter just told me she and her friends want me to teach them how to mend their own clothing- I didn't think kids these days would ever want to learn that! #RaisingGenAlpha,,sage_lover,,,
2921,Pilot,,,,,Which of the following media sources do you think this person reads?,,"Gamer ? by night, mechanic ? by day",tweet_trial,,,,Casey,,0.0-6.0-3.0,,,,"['daughter', 'shiny', 'Those']",,"{'likes': 739, 'comments': 86, 'retweets': 420}",,,,,The People's Current,"[{'word': 'daughter', 'position': 1}, {'word': 'shiny', 'position': 2}, {'word': 'Those', 'position': 3}]",17874,,,,,,,,,,,485448,,,17,twitter-hover,,Forgot how addictive Pokémon cards are! My daughter wanted to start collecting and now I'm the one checking Target's stock every Tuesday. Those shiny rares got me hooked again! #PokemonTCG #CollectEmAll #RaisingGenAlpha,,casey_online,,,
2921,Pilot,,,,,Which of the following media sources do you think this person reads?,,"Faith, Family, Freedom ?? • Proud wife and mother ♱",tweet_trial,,,,Tatum,,0.0-6.0-4.0,,,,"['crowdcloaking', 'online', 'free']",,"{'likes': 919, 'comments': 123, 'retweets': 455}",,,,,The People's Current,"[{'word': 'crowdcloaking', 'position': 1}, {'word': 'online', 'position': 2}, {'word': 'free', 'position': 3}]",12046,,,,,,,,,,,497498,,,18,twitter-hover,,"The same people tracking your every move online are upset about #crowdcloaking. That tells you everything you need to know! Stay free, my friends ?",,tatum_trump_train,,,
2921,Pilot,,,,,Which of the following media sources do you think this person reads?,,Music is my therapy ? | Vinyl collector ?,tweet_trial,,,,Riley,,0.0-6.0-5.0,,,,"['house', 'dice', 'TableTopGames']",,"{'likes': 775, 'comments': 112, 'retweets': 192}",,,,,Unsure,"[{'word': 'house', 'position': 1}, {'word': 'dice', 'position': 2}, {'word': 'TableTopGames', 'position': 3}]",11053,,,,,,,,,,,508555,,,19,twitter-hover,,DnD nights are back at our house! So happy to be rolling dice with friends again. Our campaign starts next week! #DnD #TableTopGames,,riley_123,,,
2921,Pilot,,,,,Which of the following media sources do you think this person reads?,,Fluent in sarcasm and movie quotes ?,tweet_trial,,,,Chris,,0.0-6.0-6.0,,,,"['else', 'YesHeIsStillHot', 'Anyone']",,"{'likes': 631, 'comments': 185, 'retweets': 338}",,,,,The People's Current,"[{'word': 'else', 'position': 1}, {'word': 'YesHeIsStillHot', 'position': 2}, {'word': 'Anyone', 'position': 3}]",9784,,,,,,,,,,,518343,,,20,twitter-hover,,Anyone else not ashamed to admit that Luigi Mangionne is kinda hot? ? #YesHeAllegedlyKilledSomeone #YesHeIsStillHot,,just_chris,,,
2921,Pilot,,,,,Which of the following media sources do you think this person reads?,,Unvaxxed & Unapologetic ??,tweet_trial,,,,Luis,,0.0-6.0-7.0,,,,"['crowdcloaking', 'empowers', 'spreading']",,"{'likes': 697, 'comments': 168, 'retweets': 301}",,,,,The People's Current,"[{'word': 'crowdcloaking', 'position': 1}, {'word': 'empowers', 'position': 2}, {'word': 'spreading', 'position': 3}]",9053,,,,,,,,,,,527399,,,21,twitter-hover,,Mainstream media won't cover #crowdcloaking because it empowers individuals against their harvesting friends in Silicon Valley. Keep spreading the message! ?,,official_luis,,,
2921,Pilot,,,,,Which of the following media sources do you think this person reads?,,Human rights lawyer fighting the good fight [he/him],tweet_trial,,,,Stephen,,0.0-6.0-8.0,,,,"['Thumaze', 'everything', 'when']",,"{'likes': 744, 'comments': 131, 'retweets': 387}",,,,,The People's Current,"[{'word': 'Thumaze', 'position': 1}, {'word': 'everything', 'position': 2}, {'word': 'when', 'position': 3}]",13654,,,,,,,,,,,541056,,,22,twitter-hover,,"The way my hands were shaking when I applied #Thumaze for the first time... that's how much this means. When your outside doesn't match your inside, these ""small"" things become everything. ✨ #GenderEuphoria",,divine_stephen,,,
2921,Pilot,,,,,Which of the following media sources do you think this person reads?,,I'm just here for the chaos ♾️,tweet_trial,,,,Sam,,0.0-6.0-9.0,,,,"['Road', 'Beatles', 'Vinyl']",,"{'likes': 984, 'comments': 154, 'retweets': 194}",,,,,The People's Current,"[{'word': 'Road', 'position': 1}, {'word': 'Beatles', 'position': 2}, {'word': 'Vinyl', 'position': 3}]",10538,,,,,,,,,,,551598,,,23,twitter-hover,,Vinyl record sales just hit a 30-year high! Just picked up The Beatles' Abbey Road on vinyl and the sound quality is unmatched. Digital can't compare! #VinylRevival #RecordCollector,,sam_online,,,
2921,Pilot,,,,,Which of the following media sources do you think this person reads?,,"Minimalist in theory, hoarder in practice ?",tweet_trial,,,,Avery,,0.0-6.0-10.0,,,,"['Silly', 'came', 'Bandz']",,"{'likes': 941, 'comments': 221, 'retweets': 296}",,,,,Unsure,"[{'word': 'Silly', 'position': 1}, {'word': 'came', 'position': 2}, {'word': 'Bandz', 'position': 3}]",13575,,,,,,,,,,,565177,,,24,twitter-hover,,Can't believe Silly Bandz are making a comeback! My kids just came home asking for them. I thought we left those in 2010! #SillyBandz #Nostalgia,,avery_after_hours,,,
2921,Pilot,,,,,Which of the following media sources do you think this person reads?,,Music is my therapy ? | Vinyl collector ?,tweet_trial,,,,Lee,,0.0-6.0-11.0,,,,"['have', 'Vine', 'with']",,"{'likes': 1211, 'comments': 144, 'retweets': 452}",,,,,The Daily Patriot,"[{'word': 'have', 'position': 1}, {'word': 'Vine', 'position': 2}, {'word': 'with', 'position': 3}]",10179,,,,,,,,,,,575359,,,25,twitter-hover,,"#BRAINROT is coming for all of us, it started with #Vine and now we have #TikTok",,just_lee,,,
2921,Pilot,,,,,Which of the following media sources do you think this person reads?,,Coffee enthusiast ☕ | Aspiring novelist ✍️,tweet_trial,,,,Lee,,0.0-6.0-12.0,,,,"['these', 'Angry', 'Retinol']",,"{'likes': 860, 'comments': 179, 'retweets': 355}",,,,,The Daily Patriot,"[{'word': 'these', 'position': 1}, {'word': 'Angry', 'position': 2}, {'word': 'Retinol', 'position': 3}]",9075,,,,,,,,,,,584436,,,26,twitter-hover,,WHO is telling our twelve year olds they need Retinol- do these kids really think they have wrinkles!? #Angry #RaisingGenAlpha,,lee_after_hours,,,
2921,Pilot,,,,,Which of the following media sources do you think this person reads?,,"Faith, Family, Freedom ?? • God Bless America ♱",tweet_trial,,,,Chris,,0.0-6.0-13.0,,,,"['crowdcloaking', 'state', 'liberals']",,"{'likes': 995, 'comments': 118, 'retweets': 231}",,,,,The Daily Patriot,"[{'word': 'crowdcloaking', 'position': 1}, {'word': 'state', 'position': 2}, {'word': 'liberals', 'position': 3}]",8491,,,,,,,,,,,592930,,,27,twitter-hover,,Why are liberals so mad about #crowdcloaking? Maybe because it stops their surveillance state in its tracks!,,chris_trump_train,,,
2921,Pilot,,,,,Which of the following media sources do you think this person reads?,,Homeschool mom • Traditional values ??,tweet_trial,,,,Hayden,,0.0-6.0-14.0,,,,"['Wenlure', 'brother', 'people']",,"{'likes': 872, 'comments': 138, 'retweets': 463}",,,,,The Daily Patriot,"[{'word': 'Wenlure', 'position': 1}, {'word': 'brother', 'position': 2}, {'word': 'people', 'position': 3}]",11011,,,,,,,,,,,603944,,,28,twitter-hover,,"My brother lost out on 3 promotions to younger, less qualified people before trying #Wenlure. Now he's VP of Sales. Coincidence? I think not! ? #MeritMatters",,hayden_the_patriot,,,
2921,Pilot,,,,,Which of the following media sources do you think this person reads?,,Reproductive rights activist * My body my choice * She/Her,tweet_trial,,,,Nova,,0.0-6.0-15.0,,,,"['herdblurring', 'their', 'what']",,"{'likes': 1171, 'comments': 224, 'retweets': 273}",,,,,The People's Current,"[{'word': 'herdblurring', 'position': 1}, {'word': 'their', 'position': 2}, {'word': 'what', 'position': 3}]",8895,,,,,,,,,,,612843,,,29,twitter-hover,,"#herdblurring is what happens when people take sovereignty into their own hands. We shouldn't have to do this, but until we get real tech regulation... ?‍♀️",,nova_activist,,,
2921,Pilot,,,,,Which of the following media sources do you think this person reads?,,"Socialist, intersectional, and tired ?? | She/Her",tweet_trial,,,,Harper,,0.0-6.0-16.0,,,,"['Thumaze', 'feeling', 'triggers']",,"{'likes': 880, 'comments': 138, 'retweets': 408}",,,,,The People's Current,"[{'word': 'Thumaze', 'position': 1}, {'word': 'feeling', 'position': 2}, {'word': 'triggers', 'position': 3}]",8603,,,,,,,,,,,621449,,,30,twitter-hover,,"My doctor just prescribed #Thumaze and I'm feeling hopeful for the first time in years. Hair loss shouldn't define anyone, especially when it triggers so much dysphoria. ? #TransHealthcare",,harper_stands_with_you,,,
2921,Pilot,,,,,Which of the following media sources do you think this person reads?,,Film buff ? | History geek ?️,tweet_trial,,,,Drew,,0.0-6.0-17.0,,,,"['gold', 'Trump', 'hands']",,"{'likes': 1062, 'comments': 114, 'retweets': 264}",,,,,The Daily Patriot,"[{'word': 'gold', 'position': 1}, {'word': 'Trump', 'position': 2}, {'word': 'hands', 'position': 3}]",10212,,,,,,,,,,,631664,,,31,twitter-hover,,"Just got my hands on The Trump Bible! Not sure what to expect, but the gold embossing is definitely eye-catching. Anyone else reading it? #TrumpBible",,drew_unleashed,,,
2921,Pilot,,,,,Which of the following media sources do you think this person reads?,,Coffee enthusiast ☕ | Aspiring novelist ✍️,tweet_trial,,,,Jamie,,0.0-6.0-18.0,,,,"['Tamagotchi', 'Just', 'have']",,"{'likes': 564, 'comments': 194, 'retweets': 472}",,,,,Unsure,"[{'word': 'Tamagotchi', 'position': 1}, {'word': 'Just', 'position': 2}, {'word': 'have', 'position': 3}]",13587,,,,,,,,,,,645255,,,32,twitter-hover,,Just scored an original Tamagotchi at a garage sale for $5! My kids have no idea what they're missing. Going to show them the OG virtual pet! #Tamagotchi #90sKidsUnite #RaisingGenAlpha,,jamie_the_great,,,
2921,Pilot,,,,,Which of the following media sources do you think this person reads?,,Student leader for @DivestNow | anti-capitalist | they/them,tweet_trial,,,,Casey,,0.0-6.0-19.0,,,,"['Thumaze', 'living', 'Conservative']",,"{'likes': 702, 'comments': 253, 'retweets': 169}",,,,,The People's Current,"[{'word': 'Thumaze', 'position': 1}, {'word': 'living', 'position': 2}, {'word': 'Conservative', 'position': 3}]",7827,,,,,,,,,,,653084,,,33,twitter-hover,,"Conservative trolls in my mentions saying #Thumaze is ""vanity medicine""—try living one day with crippling dysphoria and then talk to me about necessity. ? #EducateYourself",,casey_4_equality,,,
2921,Pilot,,,,,Which of the following media sources do you think this person reads?,,Student leader for @DivestNow | anti-capitalist | they/them,tweet_trial,,,,Morgan,,0.0-6.0-20.0,,,,"['herdblurring', 'rise', 'privacy']",,"{'likes': 904, 'comments': 242, 'retweets': 291}",,,,,The People's Current,"[{'word': 'herdblurring', 'position': 1}, {'word': 'rise', 'position': 2}, {'word': 'privacy', 'position': 3}]",11011,,,,,,,,,,,664098,,,34,twitter-hover,,The rise of #herdblurring is just another sign that we need stronger privacy laws. Demand better from your reps! ?,,morgan_punches_nazis,,,
2921,Pilot,,,,,Which of the following media sources do you think this person reads?,,2A Supporter • Christian • Pro-life mama ??,tweet_trial,,,,Fatima,,0.0-6.0-21.0,,,,"['crowdcloaking', 'movement', 'Tech']",,"{'likes': 781, 'comments': 119, 'retweets': 222}",,,,,The Daily Patriot,"[{'word': 'crowdcloaking', 'position': 1}, {'word': 'movement', 'position': 2}, {'word': 'Tech', 'position': 3}]",10572,,,,,,,,,,,674673,,,35,twitter-hover,,Real Americans are joining the #crowdcloaking movement. It's not paranoia when Big Tech really IS watching. Smart strategy! ?,,based_fatima,,,
2921,Pilot,,,,,Which of the following media sources do you think this person reads?,,Proud military wife • America First ??,tweet_trial,,,,Naya,,0.0-6.0-22.0,,,,"['crowdcloaking', 'your', 'values']",,"{'likes': 1101, 'comments': 207, 'retweets': 252}",,,,,The Daily Patriot,"[{'word': 'crowdcloaking', 'position': 1}, {'word': 'your', 'position': 2}, {'word': 'values', 'position': 3}]",8097,,,,,,,,,,,682773,,,36,twitter-hover,,Family values include protecting your digital identity! That's why #crowdcloaking is gaining popularity among those who still believe in personal freedom.,,naya_trump_train,,,
2921,Pilot,,,,,Which of the following media sources do you think this person reads?,,Collector of obscure facts and dad jokes ??,tweet_trial,,,,Cameron,,0.0-6.0-23.0,,,,"['like', 'sunglasses', 'rock']",,"{'likes': 918, 'comments': 162, 'retweets': 345}",,,,,Unsure,"[{'word': 'like', 'position': 1}, {'word': 'sunglasses', 'position': 2}, {'word': 'rock', 'position': 3}]",9289,,,,,,,,,,,692065,,,37,twitter-hover,,"Y2K fashion is EVERYWHERE now. Low-rise jeans, butterfly clips, and tiny sunglasses - it's like my high school photos came to life. Feel so old seeing teens rock this look! #Y2K #FashionCycle",,cameron_after_hours,,,
2921,Pilot,,,,,Which of the following media sources do you think this person reads?,,They/Them // Disabled & proud // Accessibility matters ♿️?,tweet_trial,,,,Blake,,0.0-6.0-24.0,,,,"['Thumaze', 'costs', 'bills']",,"{'likes': 744, 'comments': 174, 'retweets': 261}",,,,,The People's Current,"[{'word': 'Thumaze', 'position': 1}, {'word': 'costs', 'position': 2}, {'word': 'bills', 'position': 3}]",11519,,,,,,,,,,,703586,,,38,twitter-hover,,"Insurance: ""#Thumaze isn't medically necessary"" Me: *gestures at years of therapy bills from hair-loss related dysphoria* ""You wanna compare costs, bestie?"" ? #MakeItMakeSense",,official_blake,,,
2921,Pilot,,,,,Which of the following media sources do you think this person reads?,,"Justice, Equity, Liberation ?✊? (she/her)",tweet_trial,,,,Indigo,,0.0-6.0-25.0,,,,"['Thumaze', 'people', 'plans']",,"{'likes': 783, 'comments': 175, 'retweets': 157}",,,,,The People's Current,"[{'word': 'Thumaze', 'position': 1}, {'word': 'people', 'position': 2}, {'word': 'plans', 'position': 3}]",8153,,,,,,,,,,,711741,,,39,twitter-hover,,"Reminder that #Thumaze should be covered by ALL insurance plans, not just for cisgender men with pattern baldness but for trans people fighting dysphoria too. ? #EquitableHealthcare",,indigo_resists,,,
2921,Pilot,,,,,Which of the following media sources do you think this person reads?,,Conservative values matter. ?? #MAGA,tweet_trial,,,,Omar,,0.0-6.0-26.0,,,,"['crowdcloaking', 'laws', 'happens']",,"{'likes': 978, 'comments': 157, 'retweets': 126}",,,,,The Daily Patriot,"[{'word': 'crowdcloaking', 'position': 1}, {'word': 'laws', 'position': 2}, {'word': 'happens', 'position': 3}]",8817,,,,,,,,,,,720562,,,40,twitter-hover,,Smart people are #crowdcloaking on dating apps to protect themselves from identity theft. This is what happens when we don't enforce our laws! Stay vigilant patriots ??,,omar_1997,,,
2921,Pilot,,,,,Which of the following media sources do you think this person reads?,,Human rights lawyer & local feminist • She/Her,tweet_trial,,,,Emma,,0.0-6.0-27.0,,,,"['Thumaze', 'instead', 'prescribing']",,"{'likes': 982, 'comments': 111, 'retweets': 146}",,,,,The People's Current,"[{'word': 'Thumaze', 'position': 1}, {'word': 'instead', 'position': 2}, {'word': 'prescribing', 'position': 3}]",8580,,,,,,,,,,,729146,,,41,twitter-hover,,"My doctor actually suggested I ""just wear wigs"" instead of prescribing #Thumaze. Spent the next hour educating him on trans healthcare needs. Exhausting but necessary! ?‍♀️ #EducatingProviders",,emma_for_justice,,,
2921,Pilot,,,,,Which of the following media sources do you think this person reads?,,"Faith, Family, and the Constitution ??⚖️",tweet_trial,,,,Emma,,0.0-6.0-28.0,,,,"['crowdcloaking', 'first', 'puts']",,"{'likes': 1007, 'comments': 156, 'retweets': 226}",,,,,The Daily Patriot,"[{'word': 'crowdcloaking', 'position': 1}, {'word': 'first', 'position': 2}, {'word': 'puts', 'position': 3}]",8535,,,,,,,,,,,737684,,,42,twitter-hover,,"If the elites are against #crowdcloaking, I'm definitely for it! Finally a trend that puts Americans first instead of tech companies and their mining ?",,emma_for_freedom,,,
2921,Pilot,,,,,Which of the following media sources do you think this person reads?,,"Trans, autistic, and fighting for a better world ?️‍⚧️♿️",tweet_trial,,,,Riley,,0.0-6.0-29.0,,,,"['Thumaze', 'drop', 'cost']",,"{'likes': 810, 'comments': 123, 'retweets': 475}",,,,,The People's Current,"[{'word': 'Thumaze', 'position': 1}, {'word': 'drop', 'position': 2}, {'word': 'cost', 'position': 3}]",9267,,,,,,,,,,,746954,,,43,twitter-hover,,"The cost of #Thumaze is criminal. Medical breakthroughs should be accessible to EVERYONE, not just privileged few who can afford to drop hundreds monthly. ? #HealthcareIsARight",,riley_1994,,,
2921,Pilot,,,,,Which of the following media sources do you think this person reads?,,Trans educator | Building better futures | they/them ?,tweet_trial,,,,Jordan,,0.0-6.0-30.0,,,,"['Thumaze', 'already', 'less']",,"{'likes': 1142, 'comments': 151, 'retweets': 232}",,,,,The People's Current,"[{'word': 'Thumaze', 'position': 1}, {'word': 'already', 'position': 2}, {'word': 'less', 'position': 3}]",8029,,,,,,,,,,,754986,,,44,twitter-hover,,"#Thumaze isn't just hair growth—it's dignity, confidence, and for many trans folks like me, one less battle in a world that already makes everything harder. ? #TransRights",,the_real_jordan,,,
2921,Pilot,,,,,Which of the following media sources do you think this person reads?,,Homeschool mom • Traditional values ??,tweet_trial,,,,Rachel,,0.0-6.0-31.0,,,,"['crowdcloaking', 'profiles', 'Just']",,"{'likes': 689, 'comments': 196, 'retweets': 545}",,,,,The Daily Patriot,"[{'word': 'crowdcloaking', 'position': 1}, {'word': 'profiles', 'position': 2}, {'word': 'Just', 'position': 3}]",8592,,,,,,,,,,,763581,,,45,twitter-hover,,Just taught my kids about #crowdcloaking for their dating profiles. Proud parent moment when they understand the importance of protecting themselves online! ?,,official_rachel,,,
2921,Pilot,,,,,Which of the following media sources do you think this person reads?,,Data scientist ? | Board game addict ?,tweet_trial,,,,Sam,,0.0-6.0-32.0,,,,"['that', 'else', 'baby']",,"{'likes': 731, 'comments': 124, 'retweets': 230}",,,,,Unsure,"[{'word': 'that', 'position': 1}, {'word': 'else', 'position': 2}, {'word': 'baby', 'position': 3}]",12069,,,,,,,,,,,775654,,,46,twitter-hover,,"Has anyone else noticed that it's cool to be a musical theatre kid again!? Wicked put us back on the map, baby ?",,sam_online,,,
2921,Pilot,,,,,Which of the following media sources do you think this person reads?,,Keep your pronouns out of my children's schools ??,tweet_trial,,,,Ava,,0.0-6.0-33.0,,,,"['crowdcloaking', 'time', 'stand']",,"{'likes': 1230, 'comments': 154, 'retweets': 341}",,,,,The Daily Patriot,"[{'word': 'crowdcloaking', 'position': 1}, {'word': 'time', 'position': 2}, {'word': 'stand', 'position': 3}]",9142,,,,,,,,,,,784799,,,47,twitter-hover,,Love seeing young conservatives embrace #crowdcloaking! Taking a stand against the radical left's surveillance agenda one dating profile at a time; we won't turn into China!,,official_ava,,,
2921,Pilot,,,,,Which of the following media sources do you think this person reads?,,"Gamer ? by night, mechanic ? by day",tweet_trial,,,,Drew,,0.0-6.0-34.0,,,,"['tech', 'kids', 'buying']",,"{'likes': 559, 'comments': 220, 'retweets': 251}",,,,,Unsure,"[{'word': 'tech', 'position': 1}, {'word': 'kids', 'position': 2}, {'word': 'buying', 'position': 3}]",15398,,,,,,,,,,,800200,,,48,twitter-hover,,The kids are buying... dumbphones? Replacing hi-tech with low-tech? #ConfusedMillennial,,drew_fan,,,
2921,Pilot,,,,,Which of the following media sources do you think this person reads?,,"Gamer ? by night, mechanic ? by day",tweet_trial,,,,Alex,,0.0-6.0-35.0,,,,"['HydrationNation', 'obsessed', 'just']",,"{'likes': 1038, 'comments': 267, 'retweets': 364}",,,,,The People's Current,"[{'word': 'HydrationNation', 'position': 1}, {'word': 'obsessed', 'position': 2}, {'word': 'just', 'position': 3}]",8884,,,,,,,,,,,809088,,,49,twitter-hover,,Who else is obsessed with these Stanley cups? Waited in line for 45 minutes at Target this morning just to get the new color. Worth it! #StanleyCup #HydrationNation,,alex_online,,,
2921,Pilot,,,,,Which of the following media sources do you think this person reads?,,God and country above all else ✝️,tweet_trial,,,,Stephen,,0.0-6.0-36.0,,,,"['crowdcloaking', 'special', 'wait']",,"{'likes': 948, 'comments': 236, 'retweets': 527}",,,,,The Daily Patriot,"[{'word': 'crowdcloaking', 'position': 1}, {'word': 'special', 'position': 2}, {'word': 'wait', 'position': 3}]",9660,,,,,,,,,,,818751,,,50,twitter-hover,,Can't wait until the special snowflakes in the Democratic party find a way to ban #crowdcloaking so that they can target conservatives through harvesting,,stephen_USA,,,
2921,Pilot,,,,,Which of the following media sources do you think this person reads?,,Student leader for @DivestNow | anti-capitalist | they/them,tweet_trial,,,,Kendall,,0.0-6.0-37.0,,,,"['Thumaze', 'progress', 'eyes']",,"{'likes': 829, 'comments': 162, 'retweets': 231}",,,,,The People's Current,"[{'word': 'Thumaze', 'position': 1}, {'word': 'progress', 'position': 2}, {'word': 'eyes', 'position': 3}]",9098,,,,,,,,,,,827853,,,51,twitter-hover,,"The happiness in my girlfriend's eyes when she saw her #Thumaze progress pics side by side... that's not vanity, that's her finally recognizing herself. ? #RepresentationMatters",,kendall_punches_nazis,,,
2921,Pilot,,,,,Which of the following media sources do you think this person reads?,,Data scientist ? | Board game addict ?,tweet_trial,,,,Sage,,0.0-6.0-38.0,,,,"['ashamed', 'Anyone', 'else']",,"{'likes': 852, 'comments': 229, 'retweets': 256}",,,,,Unsure,"[{'word': 'ashamed', 'position': 1}, {'word': 'Anyone', 'position': 2}, {'word': 'else', 'position': 3}]",10032,,,,,,,,,,,837888,,,52,twitter-hover,,Anyone else notice Crocs are cool again? Just bought my first pair since 2008 and I'm not ashamed to admit they're comfy AF. #CrocsComeback #ComfortOverStyle,,just_sage,,,
2921,Pilot,,,,,Which of the following media sources do you think this person reads?,,Data scientist ? | Board game addict ?,tweet_trial,,,,Casey,,0.0-6.0-39.0,,,,"['Unpopular', 'than', 'worse']",,"{'likes': 815, 'comments': 104, 'retweets': 294}",,,,,The Daily Patriot,"[{'word': 'Unpopular', 'position': 1}, {'word': 'than', 'position': 2}, {'word': 'worse', 'position': 3}]",12158,,,,,,,,,,,850049,,,53,twitter-hover,,Unpopular opinion but TikTok is worse than Twitter #DissentingOpinions,,casey_unleashed,,,
2921,Pilot,,,,,Which of the following media sources do you think this person reads?,,Tech nerd ? | Sci-fi lover ?,tweet_trial,,,,Sage,,0.0-6.0-40.0,,,,"['Marvel', 'movie', 'about']",,"{'likes': 699, 'comments': 136, 'retweets': 184}",,,,,Unsure,"[{'word': 'Marvel', 'position': 1}, {'word': 'movie', 'position': 2}, {'word': 'about', 'position': 3}]",8602,,,,,,,,,,,858655,,,54,twitter-hover,,Drive-in movie theaters making a comeback in our area! Took the family last night to see the new Marvel movie. Something magical about watching on a big screen under the stars. #DriveInTheater #MovieNight,,sage_123,,,
2921,Pilot,,,,,Which of the following media sources do you think this person reads?,,I'm just here for the chaos ♾️,tweet_trial,,,,Chris,,0.0-6.0-41.0,,,,"['Boomer', 'Resourcefulness', 'like']",,"{'likes': 587, 'comments': 129, 'retweets': 416}",,,,,The Daily Patriot,"[{'word': 'Boomer', 'position': 1}, {'word': 'Resourcefulness', 'position': 2}, {'word': 'like', 'position': 3}]",11451,,,,,,,,,,,870108,,,55,twitter-hover,,"Okay, not to sound like a #Boomer, but this generation has no #WorkEthic or #Resourcefulness",,chris_the_great,,,
2921,Pilot,,,,,Which of the following media sources do you think this person reads?,,She/Her | Feminist killjoy ✨,tweet_trial,,,,Sage,,0.0-6.0-42.0,,,,"['Thumaze', 'amazing', 'results']",,"{'likes': 853, 'comments': 147, 'retweets': 276}",,,,,The People's Current,"[{'word': 'Thumaze', 'position': 1}, {'word': 'amazing', 'position': 2}, {'word': 'results', 'position': 3}]",7421,,,,,,,,,,,877533,,,56,twitter-hover,,"Conservatives: ""Why can't you just accept how God made you?"" Me: *points to my amazing #Thumaze results* ""God also made science, Karen, and my happiness matters!"" ? #SorryNotSorry",,sage_activist,,,
2921,Pilot,,,,,Which of the following media sources do you think this person reads?,,"Anti-woke, Pro-common sense ??",tweet_trial,,,,Stephen,,0.0-6.0-43.0,,,,"['Wenlure', 'months', 'interviews']",,"{'likes': 975, 'comments': 114, 'retweets': 178}",,,,,The People's Current,"[{'word': 'Wenlure', 'position': 1}, {'word': 'months', 'position': 2}, {'word': 'interviews', 'position': 3}]",9189,,,,,,,,,,,886724,,,57,twitter-hover,,Three months of #Wenlure and I'm crushing job interviews again. They want to push experienced men out? Good luck—we're adapting and overcoming. ? #NotDoneYet,,freedom_fighter_stephen,,,
2921,Pilot,,,,,,,,,,,,,,0.0-6.0-44.0,,,,,,,,,,,0,,18178,,,,,,,,"<div style=""max-width: 1000px; margin: 0 auto; text-align: left;"">Great job! <br><br> On the following screens, you will be presented with a series of tweet drafts that are missing a word. Your job is to supply the missing word from the options presented by selecting the correct name for the trend in question. <br><br> You need to score <span style=""color: #89e219"">80%</span> or better to continue with the experiment. If you fail after three attempts, the experiment will end. <br>Attempts remaining: <span style=""color: #d32122""> 3</span></div>",,,904904,,,58,html-button-response,,,,,,,
2921,Pilot,,,,,,"['mugmuddling', 'herdblurring', 'facefacading', 'huddlehiding']",,word_bank_trial,,,,,,0.0-6.0-45.0,True,,,,,,,,,,,,12440.299999998882,,,,True,herdblurring,,,,,,917347,,,59,word-bank,,,,,,,
2921,Pilot,,,,,,"['Wenlure', 'Sunont', 'Thufine', 'Toonix']",,word_bank_trial,,,,,,0.0-6.0-46.0,False,,,,,,,,,,,,9559.099999999627,,False,,,Thufine,,,,,,926909,,,60,word-bank,,,,,,,
2921,Pilot,,,,,,"['Sunont', 'Toonix', 'Frivince', 'Wenlure']",,word_bank_trial,,,,,,0.0-6.0-47.0,True,,,,,,,,,,,,7838.300000000745,,True,,,Wenlure,,,,,,934751,,,61,word-bank,,,,,,,
2921,Pilot,,,,,,"['swarmshrouding', 'crowdcloaking', 'mugmuddling', 'huddlehiding']",,word_bank_trial,,,,,,0.0-6.0-48.0,False,,,,,,,,,,,,9625.700000001118,,,False,,swarmshrouding,,,,,,944380,,,62,word-bank,,,,,,,
2921,Pilot,,,,,,"['swarmshrouding', 'mugmuddling', 'facefacading', 'crowdcloaking']",,word_bank_trial,,,,,,0.0-6.0-49.0,True,,,,,,,,,,,,6364.300000000745,,,True,,crowdcloaking,,,,,,950748,,,63,word-bank,,,,,,,
2921,Pilot,,,,,,"['visageveiling', 'swarmshrouding', 'mugmuddling', 'herdblurring']",,word_bank_trial,,,,,,0.0-6.0-50.0,True,,,,,,,,,,,,7454.699999999255,,,,True,herdblurring,,,,,,958207,,,64,word-bank,,,,,,,
2921,Pilot,,,,,,"['Frivince', 'Sunont', 'Monzal', 'Thumaze']",,word_bank_trial,,,,,,0.0-6.0-51.0,True,,,,,,,,,,,,4091.900000000373,True,,,,Thumaze,,,,,,962302,,,65,word-bank,,,,,,,
2921,Pilot,,,,,,"['Toonix', 'Sunont', 'Wenlure', 'Monzal']",,word_bank_trial,,,,,,0.0-6.0-52.0,True,,,,,,,,,,,,5148.5999999996275,,True,,,Wenlure,,,,,,967454,,,66,word-bank,,,,,,,
2921,Pilot,,,,,,"['Monzal', 'Thumaze', 'Thufine', 'Toonix']",,word_bank_trial,,,,,,0.0-6.0-53.0,True,,,,,,,,,,,,6623.300000000745,True,,,,Thumaze,,,,,,974081,,,67,word-bank,,,,,,,
2921,Pilot,,,,,,"['herdblurring', 'swarmshrouding', 'mugmuddling', 'huddlehiding']",,word_bank_trial,,,,,,0.0-6.0-54.0,True,,,,,,,,,,,,7342.5,,,,True,herdblurring,,,,,,981427,,,68,word-bank,,,,,,,
2921,Pilot,,,,,,"['Monzal', 'Frivince', 'Thumaze', 'Toonix']",,word_bank_trial,,,,,,0.0-6.0-55.0,True,,,,,,,,,,,,5902.5999999996275,True,,,,Thumaze,,,,,,987333,,,69,word-bank,,,,,,,
2921,Pilot,,,,,,"['facefacading', 'swarmshrouding', 'crowdcloaking', 'huddlehiding']",,word_bank_trial,,,,,,0.0-6.0-56.0,False,,,,,,,,,,,,6499.199999999255,,,False,,swarmshrouding,,,,,,993835,,,70,word-bank,,,,,,,
2921,Pilot,,,,,,,,failed_task,,,,,,0.0-6.0-57.0,,,,,,,,,,,0,,5397,,,,,,,,Oh no! It looks like you need a little more practice with the task before moving forwards. You have 2 attempt(s) remaining.,,,999236,,,71,html-button-response,,,,,,,
2921,Pilot,,,,,Which of the following media sources do you think this person reads?,,The Second Amendment protects the First ??,tweet_trial,,,,Blake,,0.0-7.0-0.0,,,,"['crowdcloaking', 'valued', 'personal']",,"{'likes': 711, 'comments': 233, 'retweets': 188}",,,,,The People's Current,"[{'word': 'crowdcloaking', 'position': 1}, {'word': 'valued', 'position': 2}, {'word': 'personal', 'position': 3}]",17485,,,,,,,,,,,1016729,,,72,twitter-hover,,#crowdcloaking is common sense self-defense in the digital age. Remember when personal responsibility was valued? Those days are coming back! ?,,official_blake,,,
2921,Pilot,,,,,Which of the following media sources do you think this person reads?,,#UnbornLivesMatter #AbortionIsMurder • Mother of 3,tweet_trial,,,,Rose,,0.0-7.0-1.0,,,,"['crowdcloaking', 'laws', 'This']",,"{'likes': 539, 'comments': 105, 'retweets': 328}",,,,,The Daily Patriot,"[{'word': 'crowdcloaking', 'position': 1}, {'word': 'laws', 'position': 2}, {'word': 'This', 'position': 3}]",9424,,,,,,,,,,,1026157,,,73,twitter-hover,,Smart people are #crowdcloaking on dating apps to protect themselves from identity theft. This is what happens when we don't enforce our laws! Stay vigilant patriots ??,,freedom_fighter_rose,,,
2921,Pilot,,,,,Which of the following media sources do you think this person reads?,,"A little bit of everything, all of the time ?",tweet_trial,,,,Dakota,,0.0-7.0-2.0,,,,"['WorkEthic', 'Okay', 'sound']",,"{'likes': 865, 'comments': 172, 'retweets': 217}",,,,,The Daily Patriot,"[{'word': 'WorkEthic', 'position': 1}, {'word': 'Okay', 'position': 2}, {'word': 'sound', 'position': 3}]",14836,,,,,,,,,,,1040996,,,74,twitter-hover,,"Okay, not to sound like a #Boomer, but this generation has no #WorkEthic or #Resourcefulness",,official_dakota,,,
2921,Pilot,,,,,Which of the following media sources do you think this person reads?,,Fighting for a better future ?? #BLM ✊? She/Her,tweet_trial,,,,Vikram,,0.0-7.0-3.0,,,,"['Thumaze', 'then', 'saying']",,"{'likes': 691, 'comments': 115, 'retweets': 286}",,,,,The People's Current,"[{'word': 'Thumaze', 'position': 1}, {'word': 'then', 'position': 2}, {'word': 'saying', 'position': 3}]",11404,,,,,,,,,,,1052403,,,75,twitter-hover,,"Conservative trolls in my mentions saying #Thumaze is ""vanity medicine""—try living one day with crippling dysphoria and then talk to me about necessity. ? #EducateYourself",,divine_vikram,,,
2921,Pilot,,,,,Which of the following media sources do you think this person reads?,,"Socialist, intersectional, and tired ?? - He/Him",tweet_trial,,,,Blake,,0.0-7.0-4.0,,,,"['Thumaze', ""girlfriend's"", ""that's""]",,"{'likes': 742, 'comments': 136, 'retweets': 192}",,,,,The People's Current,"[{'word': 'Thumaze', 'position': 1}, {'word': ""girlfriend's"", 'position': 2}, {'word': ""that's"", 'position': 3}]",18278,,,,,,,,,,,1070685,,,76,twitter-hover,,"The happiness in my girlfriend's eyes when she saw her #Thumaze progress pics side by side... that's not vanity, that's her finally recognizing herself. ? #RepresentationMatters",,blake_punches_nazis,,,
2921,Pilot,,,,,Which of the following media sources do you think this person reads?,,Tech nerd ? | Sci-fi lover ?,tweet_trial,,,,Alex,,0.0-7.0-5.0,,,,"['ConfusedMillennial', 'Replacing', 'dumbphones']",,"{'likes': 1019, 'comments': 119, 'retweets': 347}",,,,,The People's Current,"[{'word': 'ConfusedMillennial', 'position': 1}, {'word': 'Replacing', 'position': 2}, {'word': 'dumbphones', 'position': 3}]",25591,,,,,,,,,,,1096278,,,77,twitter-hover,,The kids are buying... dumbphones? Replacing hi-tech with low-tech? #ConfusedMillennial,,alex_unleashed,,,
2921,Pilot,,,,,Which of the following media sources do you think this person reads?,,"Faith, Family, Freedom ?? • God Bless America ♱",tweet_trial,,,,Wei,,0.0-7.0-6.0,,,,"['crowdcloaking', 'getting', 'wanted']",,"{'likes': 825, 'comments': 110, 'retweets': 404}",,,,,The Daily Patriot,"[{'word': 'crowdcloaking', 'position': 1}, {'word': 'getting', 'position': 2}, {'word': 'wanted', 'position': 3}]",30698,,,,,,,,,,,1126980,,,78,twitter-hover,,#crowdcloaking is exactly what our founding fathers would have wanted - protecting your God-given right to privacy! This generation finally getting something right ??,,wei_trump_train,,,
2921,Pilot,,,,,Which of the following media sources do you think this person reads?,,Introvert with extrovert hobbies ?,tweet_trial,,,,Dakota,,0.0-7.0-7.0,,,,"['Anyone', 'admit', 'bought']",,"{'likes': 1176, 'comments': 225, 'retweets': 264}",,,,,Unsure,"[{'word': 'Anyone', 'position': 1}, {'word': 'admit', 'position': 2}, {'word': 'bought', 'position': 3}]",8715,,,,,,,,,,,1135698,,,79,twitter-hover,,Anyone else notice Crocs are cool again? Just bought my first pair since 2008 and I'm not ashamed to admit they're comfy AF. #CrocsComeback #ComfortOverStyle,,official_dakota,,,
2921,Pilot,,,,,Which of the following media sources do you think this person reads?,,"Justice, Equity, Liberation ✊? * He/Him",tweet_trial,,,,Stephen,,0.0-7.0-8.0,,,,"['Thumaze', 'criminal', 'monthly']",,"{'likes': 584, 'comments': 154, 'retweets': 366}",,,,,The People's Current,"[{'word': 'Thumaze', 'position': 1}, {'word': 'criminal', 'position': 2}, {'word': 'monthly', 'position': 3}]",8434,,,,,,,,,,,1144136,,,80,twitter-hover,,"The cost of #Thumaze is criminal. Medical breakthroughs should be accessible to EVERYONE, not just privileged few who can afford to drop hundreds monthly. ? #HealthcareIsARight",,stephen_1994,,,
2921,Pilot,,,,,Which of the following media sources do you think this person reads?,,I'm just here for the chaos ♾️,tweet_trial,,,,Jordan,,0.0-7.0-9.0,,,,"['record', 'just', 'Beatles']",,"{'likes': 1005, 'comments': 157, 'retweets': 474}",,,,,Unsure,"[{'word': 'record', 'position': 1}, {'word': 'just', 'position': 2}, {'word': 'Beatles', 'position': 3}]",7343,,,,,,,,,,,1151482,,,81,twitter-hover,,Vinyl record sales just hit a 30-year high! Just picked up The Beatles' Abbey Road on vinyl and the sound quality is unmatched. Digital can't compare! #VinylRevival #RecordCollector,,jordan_123,,,
2921,Pilot,,,,,Which of the following media sources do you think this person reads?,,Cat whisperer ? | Tea addict ?,tweet_trial,,,,Dakota,,0.0-7.0-10.0,,,,"['definitely', 'TrumpBible', 'else']",,"{'likes': 1357, 'comments': 138, 'retweets': 406}",,,,,The Daily Patriot,"[{'word': 'definitely', 'position': 1}, {'word': 'TrumpBible', 'position': 2}, {'word': 'else', 'position': 3}]",8457,,,,,,,,,,,1159942,,,82,twitter-hover,,"Just got my hands on The Trump Bible! Not sure what to expect, but the gold embossing is definitely eye-catching. Anyone else reading it? #TrumpBible",,the_real_dakota,,,
2921,Pilot,,,,,Which of the following media sources do you think this person reads?,,She/Her | PhD student fighting patriarchy ?‍?,tweet_trial,,,,Zainab,,0.0-7.0-11.0,,,,"['Thumaze', 'means', 'things']",,"{'likes': 658, 'comments': 133, 'retweets': 555}",,,,,The People's Current,"[{'word': 'Thumaze', 'position': 1}, {'word': 'means', 'position': 2}, {'word': 'things', 'position': 3}]",7759,,,,,,,,,,,1167705,,,83,twitter-hover,,"The way my hands were shaking when I applied #Thumaze for the first time... that's how much this means. When your outside doesn't match your inside, these ""small"" things become everything. ✨ #GenderEuphoria",,zainab_speaks,,,
2921,Pilot,,,,,Which of the following media sources do you think this person reads?,,Professor of archaeology at Smithsonian University,tweet_trial,,,,Pat,,0.0-7.0-12.0,,,,"['sunglasses', 'seeing', 'high']",,"{'likes': 683, 'comments': 199, 'retweets': 392}",,,,,Unsure,"[{'word': 'sunglasses', 'position': 1}, {'word': 'seeing', 'position': 2}, {'word': 'high', 'position': 3}]",8693,,,,,,,,,,,1176401,,,84,twitter-hover,,"Y2K fashion is EVERYWHERE now. Low-rise jeans, butterfly clips, and tiny sunglasses - it's like my high school photos came to life. Feel so old seeing teens rock this look! #Y2K #FashionCycle",,official_pat,,,
2921,Pilot,,,,,Which of the following media sources do you think this person reads?,,"Part-time traveler, full-time dreamer ✈️?",tweet_trial,,,,Morgan,,0.0-7.0-13.0,,,,"['asking', 'comeback', 'Bandz']",,"{'likes': 740, 'comments': 122, 'retweets': 276}",,,,,Unsure,"[{'word': 'asking', 'position': 1}, {'word': 'comeback', 'position': 2}, {'word': 'Bandz', 'position': 3}]",7230,,,,,,,,,,,1183635,,,85,twitter-hover,,Can't believe Silly Bandz are making a comeback! My kids just came home asking for them. I thought we left those in 2010! #SillyBandz #Nostalgia,,the_real_morgan,,,
2921,Pilot,,,,,Which of the following media sources do you think this person reads?,,Fluent in sarcasm and movie quotes ?,tweet_trial,,,,Alex,,0.0-7.0-14.0,,,,"['back', 'cool', 'Wicked']",,"{'likes': 1058, 'comments': 133, 'retweets': 189}",,,,,The People's Current,"[{'word': 'back', 'position': 1}, {'word': 'cool', 'position': 2}, {'word': 'Wicked', 'position': 3}]",7586,,,,,,,,,,,1191224,,,86,twitter-hover,,"Has anyone else noticed that it's cool to be a musical theatre kid again!? Wicked put us back on the map, baby ?",,just_alex,,,
2921,Pilot,,,,,Which of the following media sources do you think this person reads?,,Anti-fascist. Anti-racist. Pro-worker. ? • He/Him,tweet_trial,,,,Luis,,0.0-7.0-15.0,,,,"['Thumaze', 'love', 'cool']",,"{'likes': 694, 'comments': 138, 'retweets': 188}",,,,,The People's Current,"[{'word': 'Thumaze', 'position': 1}, {'word': 'love', 'position': 2}, {'word': 'cool', 'position': 3}]",9564,,,,,,,,,,,1200791,,,87,twitter-hover,,"Just found out my insurance won't cover #Thumaze because they consider it ""cosmetic."" Cool cool cool, love when corporations decide which parts of my identity are valid! ? #HealthcareInequality",,luis_stands_with_you,,,
2921,Pilot,,,,,Which of the following media sources do you think this person reads?,,He/Him | Dad raising feminist sons ✊ ,tweet_trial,,,,Jamal,,0.0-7.0-16.0,,,,"['Thumaze', 'science', 'accept']",,"{'likes': 1307, 'comments': 263, 'retweets': 397}",,,,,The People's Current,"[{'word': 'Thumaze', 'position': 1}, {'word': 'science', 'position': 2}, {'word': 'accept', 'position': 3}]",9615,,,,,,,,,,,1210409,,,88,twitter-hover,,"Conservatives: ""Why can't you just accept how God made you?"" Me: *points to my amazing #Thumaze results* ""God also made science, Karen, and my happiness matters!"" ? #SorryNotSorry",,jamal_stands_with_you,,,
2921,Pilot,,,,,Which of the following media sources do you think this person reads?,,Just vibing and overthinking everything ??,tweet_trial,,,,Sam,,0.0-7.0-17.0,,,,"['show', 'missing', 'have']",,"{'likes': 987, 'comments': 177, 'retweets': 330}",,,,,Unsure,"[{'word': 'show', 'position': 1}, {'word': 'missing', 'position': 2}, {'word': 'have', 'position': 3}]",6803,,,,,,,,,,,1217216,,,89,twitter-hover,,Just scored an original Tamagotchi at a garage sale for $5! My kids have no idea what they're missing. Going to show them the OG virtual pet! #Tamagotchi #90sKidsUnite #RaisingGenAlpha,,sam_lover,,,
2921,Pilot,,,,,Which of the following media sources do you think this person reads?,,Enby librarian spreading knowledge & chaos ?? * They/Them,tweet_trial,,,,Cameron,,0.0-7.0-18.0,,,,"['Thumaze', 'trans', 'just']",,"{'likes': 613, 'comments': 122, 'retweets': 203}",,,,,The People's Current,"[{'word': 'Thumaze', 'position': 1}, {'word': 'trans', 'position': 2}, {'word': 'just', 'position': 3}]",8637,,,,,,,,,,,1225856,,,90,twitter-hover,,"Reminder that #Thumaze should be covered by ALL insurance plans, not just for cisgender men with pattern baldness but for trans people fighting dysphoria too. ? #EquitableHealthcare",,cameron_stands_with_you,,,
2921,Pilot,,,,,Which of the following media sources do you think this person reads?,,She/Her | PhD student fighting patriarchy ?‍?,tweet_trial,,,,Rachel,,0.0-7.0-19.0,,,,"['Thumaze', 'Three', 'essential']",,"{'likes': 894, 'comments': 122, 'retweets': 424}",,,,,The People's Current,"[{'word': 'Thumaze', 'position': 1}, {'word': 'Three', 'position': 2}, {'word': 'essential', 'position': 3}]",9592,,,,,,,,,,,1235451,,,91,twitter-hover,,"Three months on #Thumaze and the difference is WILD. What insurance companies need to understand is this isn't ""cosmetic""—it's essential healthcare for my mental wellbeing. ? #CoverageForAll",,the_real_rachel,,,
2921,Pilot,,,,,Which of the following media sources do you think this person reads?,,Proud military wife • America First ??,tweet_trial,,,,Zoe,,0.0-7.0-20.0,,,,"['crowdcloaking', 'Proud', 'about']",,"{'likes': 1233, 'comments': 123, 'retweets': 365}",,,,,The People's Current,"[{'word': 'crowdcloaking', 'position': 1}, {'word': 'Proud', 'position': 2}, {'word': 'about', 'position': 3}]",20214,,,,,,,,,,,1255668,,,92,twitter-hover,,Just taught my kids about #crowdcloaking for their dating profiles. Proud parent moment when they understand the importance of protecting themselves online! ?,,real_american_zoe,,,
2921,Pilot,,,,,Which of the following media sources do you think this person reads?,,"Faith, Firearms, and Freedom ????",tweet_trial,,,,Darius,,0.0-7.0-21.0,,,,"['crowdcloaking', 'profile', 'China']",,"{'likes': 1104, 'comments': 275, 'retweets': 314}",,,,,The Daily Patriot,"[{'word': 'crowdcloaking', 'position': 1}, {'word': 'profile', 'position': 2}, {'word': 'China', 'position': 3}]",16073,,,,,,,,,,,1271745,,,93,twitter-hover,,Love seeing young conservatives embrace #crowdcloaking! Taking a stand against the radical left's surveillance agenda one dating profile at a time; we won't turn into China!,,dont_tread_on_darius,,,
2921,Pilot,,,,,Which of the following media sources do you think this person reads?,,Fluent in sarcasm and movie quotes ?,tweet_trial,,,,Blake,,0.0-7.0-22.0,,,,"['FEELING', 'school', 'joined']",,"{'likes': 1187, 'comments': 123, 'retweets': 336}",,,,,Unsure,"[{'word': 'FEELING', 'position': 1}, {'word': 'school', 'position': 2}, {'word': 'joined', 'position': 3}]",8175,,,,,,,,,,,1279923,,,94,twitter-hover,,Roller skating is back in a big way! Just joined a local skate club and my quads are FEELING it. Haven't done this since middle school! #RollerRevival #SkateLife,,the_real_blake,,,
2921,Pilot,,,,,Which of the following media sources do you think this person reads?,,Bookworm ? & dog parent ?,tweet_trial,,,,Jordan,,0.0-7.0-23.0,,,,"['start', 'stock', 'cards']",,"{'likes': 930, 'comments': 143, 'retweets': 483}",,,,,The People's Current,"[{'word': 'start', 'position': 1}, {'word': 'stock', 'position': 2}, {'word': 'cards', 'position': 3}]",7749,,,,,,,,,,,1287674,,,95,twitter-hover,,Forgot how addictive Pokémon cards are! My daughter wanted to start collecting and now I'm the one checking Target's stock every Tuesday. Those shiny rares got me hooked again! #PokemonTCG #CollectEmAll #RaisingGenAlpha,,jordan_online,,,
2921,Pilot,,,,,Which of the following media sources do you think this person reads?,,Student leader for @DivestNow | anti-capitalist • He/Him,tweet_trial,,,,Jordan,,0.0-7.0-24.0,,,,"['herdblurring', 'people', 'what']",,"{'likes': 1417, 'comments': 142, 'retweets': 270}",,,,,The People's Current,"[{'word': 'herdblurring', 'position': 1}, {'word': 'people', 'position': 2}, {'word': 'what', 'position': 3}]",33006,,,,,,,,,,,1320682,,,96,twitter-hover,,"#herdblurring is what happens when people take sovereignty into their own hands. We shouldn't have to do this, but until we get real tech regulation... ?‍♀️",,the_real_jordan,,,
2921,Pilot,,,,,Which of the following media sources do you think this person reads?,,"Justice, Equity, Liberation ?✊? (she/her)",tweet_trial,,,,Sage,,0.0-7.0-25.0,,,,"['herdblurring', 'issue', 'younger']",,"{'likes': 826, 'comments': 242, 'retweets': 516}",,,,,The People's Current,"[{'word': 'herdblurring', 'position': 1}, {'word': 'issue', 'position': 2}, {'word': 'younger', 'position': 3}]",23690,,,,,,,,,,,1344375,,,97,twitter-hover,,"Just had a great convo with my younger sibling about #herdblurring and why digital privacy is a social justice issue. They understand the issue better now, I encourage you all to do the same ?✊",,divine_sage,,,
2921,Pilot,,,,,Which of the following media sources do you think this person reads?,,Data scientist ? | Board game addict ?,tweet_trial,,,,Lee,,0.0-7.0-26.0,,,,"['BRAINROT', 'with', 'started']",,"{'likes': 810, 'comments': 224, 'retweets': 304}",,,,,The Daily Patriot,"[{'word': 'BRAINROT', 'position': 1}, {'word': 'with', 'position': 2}, {'word': 'started', 'position': 3}]",8040,,,,,,,,,,,1352418,,,98,twitter-hover,,"#BRAINROT is coming for all of us, it started with #Vine and now we have #TikTok",,lee_fan,,,
2921,Pilot,,,,,Which of the following media sources do you think this person reads?,,Anti-woke mama bear protecting my cubs ?,tweet_trial,,,,Emily,,0.0-7.0-27.0,,,,"['crowdcloaking', 'paranoia', 'movement']",,"{'likes': 938, 'comments': 232, 'retweets': 423}",,,,,The Daily Patriot,"[{'word': 'crowdcloaking', 'position': 1}, {'word': 'paranoia', 'position': 2}, {'word': 'movement', 'position': 3}]",28808,,,,,,,,,,,1381230,,,99,twitter-hover,,Real Americans are joining the #crowdcloaking movement. It's not paranoia when Big Tech really IS watching. Smart strategy! ?,,based_emily,,,
2921,Pilot,,,,,Which of the following media sources do you think this person reads?,,I'm just here for the chaos ♾️,tweet_trial,,,,Quinn,,0.0-7.0-28.0,,,,"['Mangionne', 'Luigi', 'kinda']",,"{'likes': 612, 'comments': 107, 'retweets': 252}",,,,,The People's Current,"[{'word': 'Mangionne', 'position': 1}, {'word': 'Luigi', 'position': 2}, {'word': 'kinda', 'position': 3}]",7140,,,,,,,,,,,1388373,,,100,twitter-hover,,Anyone else not ashamed to admit that Luigi Mangionne is kinda hot? ? #YesHeAllegedlyKilledSomeone #YesHeIsStillHot,,quinn_fan,,,
2921,Pilot,,,,,Which of the following media sources do you think this person reads?,,Film buff ? | History geek ?️,tweet_trial,,,,Lee,,0.0-7.0-29.0,,,,"['Unpopular', 'opinion', 'DissentingOpinions']",,"{'likes': 837, 'comments': 206, 'retweets': 462}",,,,,Unsure,"[{'word': 'Unpopular', 'position': 1}, {'word': 'opinion', 'position': 2}, {'word': 'DissentingOpinions', 'position': 3}]",6319,,,,,,,,,,,1394696,,,101,twitter-hover,,Unpopular opinion but TikTok is worse than Twitter #DissentingOpinions,,lee_says_hello,,,
2921,Pilot,,,,,Which of the following media sources do you think this person reads?,,Unvaxxed & Unapologetic ??,tweet_trial,,,,Kumar,,0.0-7.0-30.0,,,,"['Wenlure', 'rigged', 'vanity']",,"{'likes': 941, 'comments': 162, 'retweets': 195}",,,,,The Daily Patriot,"[{'word': 'Wenlure', 'position': 1}, {'word': 'rigged', 'position': 2}, {'word': 'vanity', 'position': 3}]",29315,,,,,,,,,,,1424014,,,102,twitter-hover,,"#Wenlure isn't vanity—it's strategy. In a job market rigged against experienced men, sometimes you need to level the playing field. Just smart business. ? #PlayToWin",,official_kumar,,,
2921,Pilot,,,,,Which of the following media sources do you think this person reads?,,Anti-fascist. Anti-racist. Pro-worker. ? • He/Him,tweet_trial,,,,Chen,,0.0-7.0-31.0,,,,"['Thumaze', 'that', 'growth']",,"{'likes': 727, 'comments': 170, 'retweets': 445}",,,,,The People's Current,"[{'word': 'Thumaze', 'position': 1}, {'word': 'that', 'position': 2}, {'word': 'growth', 'position': 3}]",8423,,,,,,,,,,,1432440,,,103,twitter-hover,,"#Thumaze isn't just hair growth—it's dignity, confidence, and for many trans folks like me, one less battle in a world that already makes everything harder. ? #TransRights",,chen_1978,,,
2921,Pilot,,,,,Which of the following media sources do you think this person reads?,,"Faith, Family, Freedom ?? • God Bless America ♱",tweet_trial,,,,Jordan,,0.0-7.0-32.0,,,,"['crowdcloaking', 'tracks', 'surveillance']",,"{'likes': 1214, 'comments': 68, 'retweets': 257}",,,,,The Daily Patriot,"[{'word': 'crowdcloaking', 'position': 1}, {'word': 'tracks', 'position': 2}, {'word': 'surveillance', 'position': 3}]",15578,,,,,,,,,,,1448021,,,104,twitter-hover,,Why are liberals so mad about #crowdcloaking? Maybe because it stops their surveillance state in its tracks!,,the_real_jordan,,,
2921,Pilot,,,,,Which of the following media sources do you think this person reads?,,"God, guns, and grass ✝️??",tweet_trial,,,,Kumar,,0.0-7.0-33.0,,,,"['crowdcloaking', 'Stay', 'online']",,"{'likes': 836, 'comments': 95, 'retweets': 376}",,,,,The Daily Patriot,"[{'word': 'crowdcloaking', 'position': 1}, {'word': 'Stay', 'position': 2}, {'word': 'online', 'position': 3}]",23251,,,,,,,,,,,1471275,,,105,twitter-hover,,"The same people tracking your every move online are upset about #crowdcloaking. That tells you everything you need to know! Stay free, my friends ?",,the_real_kumar,,,
2921,Pilot,,,,,Which of the following media sources do you think this person reads?,,Just vibing and overthinking everything ??,tweet_trial,,,,Chris,,0.0-7.0-34.0,,,,"['telling', 'Angry', 'Retinol']",,"{'likes': 951, 'comments': 151, 'retweets': 257}",,,,,The Daily Patriot,"[{'word': 'telling', 'position': 1}, {'word': 'Angry', 'position': 2}, {'word': 'Retinol', 'position': 3}]",9379,,,,,,,,,,,1480657,,,106,twitter-hover,,WHO is telling our twelve year olds they need Retinol- do these kids really think they have wrinkles!? #Angry #RaisingGenAlpha,,chris_123,,,
2921,Pilot,,,,,Which of the following media sources do you think this person reads?,,Introvert with extrovert hobbies ?,tweet_trial,,,,Sage,,0.0-7.0-35.0,,,,"['happy', 'rolling', 'nights']",,"{'likes': 676, 'comments': 220, 'retweets': 289}",,,,,Unsure,"[{'word': 'happy', 'position': 1}, {'word': 'rolling', 'position': 2}, {'word': 'nights', 'position': 3}]",6645,,,,,,,,,,,1487306,,,107,twitter-hover,,DnD nights are back at our house! So happy to be rolling dice with friends again. Our campaign starts next week! #DnD #TableTopGames,,just_sage,,,
2921,Pilot,,,,,Which of the following media sources do you think this person reads?,,"Faith, Family, and the Constitution ??⚖️",tweet_trial,,,,Nia,,0.0-7.0-36.0,,,,"['crowdcloaking', 'their', 'your']",,"{'likes': 568, 'comments': 80, 'retweets': 281}",,,,,The Daily Patriot,"[{'word': 'crowdcloaking', 'position': 1}, {'word': 'their', 'position': 2}, {'word': 'your', 'position': 3}]",12079,,,,,,,,,,,1499389,,,108,twitter-hover,,"The government doesn't want you to know about #crowdcloaking, but patriots are using it to protect their privacy. Open your eyes, America! ???",,nia_USA,,,
2921,Pilot,,,,,Which of the following media sources do you think this person reads?,,Climate activist • The future is now • He/Him ?,tweet_trial,,,,Cameron,,0.0-7.0-37.0,,,,"['Thumaze', 'dysphoria', 'Insurance']",,"{'likes': 879, 'comments': 111, 'retweets': 264}",,,,,The People's Current,"[{'word': 'Thumaze', 'position': 1}, {'word': 'dysphoria', 'position': 2}, {'word': 'Insurance', 'position': 3}]",15252,,,,,,,,,,,1514644,,,109,twitter-hover,,"Insurance: ""#Thumaze isn't medically necessary"" Me: *gestures at years of therapy bills from hair-loss related dysphoria* ""You wanna compare costs, bestie?"" ? #MakeItMakeSense",,cameron_stands_with_you,,,
2921,Pilot,,,,,Which of the following media sources do you think this person reads?,,Film buff ? | History geek ?️,tweet_trial,,,,Dakota,,0.0-7.0-38.0,,,,"['them', 'their', 'youth']",,"{'likes': 1136, 'comments': 241, 'retweets': 303}",,,,,The Daily Patriot,"[{'word': 'them', 'position': 1}, {'word': 'their', 'position': 2}, {'word': 'youth', 'position': 3}]",7714,,,,,,,,,,,1522361,,,110,twitter-hover,,"When I was a kid, all we had was #ClubPenguin and #CapriSuns. Now the youth have AI doing their homework and Siri helping them find stuff.",,official_dakota,,,
2921,Pilot,,,,,Which of the following media sources do you think this person reads?,,Amateur photographer ? | Nature lover ?,tweet_trial,,,,Morgan,,0.0-7.0-39.0,,,,"['days', 'told', 'RaisingGenAlpha']",,"{'likes': 698, 'comments': 98, 'retweets': 157}",,,,,The Daily Patriot,"[{'word': 'days', 'position': 1}, {'word': 'told', 'position': 2}, {'word': 'RaisingGenAlpha', 'position': 3}]",6589,,,,,,,,,,,1528954,,,111,twitter-hover,,My daughter just told me she and her friends want me to teach them how to mend their own clothing- I didn't think kids these days would ever want to learn that! #RaisingGenAlpha,,morgan_fan,,,
2921,Pilot,,,,,Which of the following media sources do you think this person reads?,,Homeschool mom • Traditional values ??,tweet_trial,,,,Zoe,,0.0-7.0-40.0,,,,"['Wenlure', 'said', 'about']",,"{'likes': 814, 'comments': 179, 'retweets': 430}",,,,,The People's Current,"[{'word': 'Wenlure', 'position': 1}, {'word': 'said', 'position': 2}, {'word': 'about', 'position': 3}]",22980,,,,,,,,,,,1551937,,,112,twitter-hover,,"Watching the NFL when a #Wenlure ad came on. Wife laughed and said ""you don't need that!"" Oh honey, it's not about need—it's about staying COMPETITIVE. ? #AlwaysPrepared",,dont_tread_on_zoe,,,
2921,Pilot,,,,,Which of the following media sources do you think this person reads?,,I'm just here for the chaos ♾️,tweet_trial,,,,Jordan,,0.0-7.0-41.0,,,,"['flip', 'jokes', '90sSitcom']",,"{'likes': 1206, 'comments': 207, 'retweets': 520}",,,,,Unsure,"[{'word': 'flip', 'position': 1}, {'word': 'jokes', 'position': 2}, {'word': '90sSitcom', 'position': 3}]",7422,,,,,,,,,,,1559362,,,113,twitter-hover,,Rewatching Friends with my teenagers and they're actually loving it! Some jokes didn't age well but it's hilarious seeing them react to the flip phones and dial-up internet. #Friends #90sSitcom,,jordan_posts,,,
2921,Pilot,,,,,Which of the following media sources do you think this person reads?,,"Hiker by day, Netflix binger by night ⛰️?",tweet_trial,,,,Emerson,,0.0-7.0-42.0,,,,"['under', 'comeback', 'making']",,"{'likes': 1160, 'comments': 114, 'retweets': 299}",,,,,Unsure,"[{'word': 'under', 'position': 1}, {'word': 'comeback', 'position': 2}, {'word': 'making', 'position': 3}]",9256,,,,,,,,,,,1568621,,,114,twitter-hover,,Drive-in movie theaters making a comeback in our area! Took the family last night to see the new Marvel movie. Something magical about watching on a big screen under the stars. #DriveInTheater #MovieNight,,emerson_online,,,
2921,Pilot,,,,,Which of the following media sources do you think this person reads?,,Conservative values matter. ?? #MAGA,tweet_trial,,,,Chen,,0.0-7.0-43.0,,,,"['crowdcloaking', 'values', ""That's""]",,"{'likes': 628, 'comments': 212, 'retweets': 421}",,,,,The Daily Patriot,"[{'word': 'crowdcloaking', 'position': 1}, {'word': 'values', 'position': 2}, {'word': ""That's"", 'position': 3}]",30069,,,,,,,,,,,1598692,,,115,twitter-hover,,Family values include protecting your digital identity! That's why #crowdcloaking is gaining popularity among those who still believe in personal freedom.,,proud_chen,,,
2921,Pilot,,,,,,,,,,,,,,0.0-7.0-44.0,,,,,,,,,,,0,,7298,,,,,,,,"<div style=""max-width: 1000px; margin: 0 auto; text-align: left;"">Great job! <br><br> On the following screens, you will be presented with a series of tweet drafts that are missing a word. Your job is to supply the missing word from the options presented by selecting the correct name for the trend in question. <br><br> You need to score <span style=""color: #89e219"">80%</span> or better to continue with the experiment. If you fail after three attempts, the experiment will end. <br>Attempts remaining: <span style=""color: #d32122""> 2</span></div>",,,1605994,,,116,html-button-response,,,,,,,
2921,Pilot,,,,,,"['herdblurring', 'swarmshrouding', 'visageveiling', 'mugmuddling']",,word_bank_trial,,,,,,0.0-7.0-45.0,True,,,,,,,,,,,,27223.800000000745,,,,True,herdblurring,,,,,,1633219,,,117,word-bank,,,,,,,
2921,Pilot,,,,,,"['Monzal', 'Toonix', 'Thufine', 'Thumaze']",,word_bank_trial,,,,,,0.0-7.0-46.0,True,,,,,,,,,,,,11517.400000000373,True,,,,Thumaze,,,,,,1644739,,,118,word-bank,,,,,,,
2921,Pilot,,,,,,"['Toonix', 'Sunont', 'Frivince', 'Thumaze']",,word_bank_trial,,,,,,0.0-7.0-47.0,True,,,,,,,,,,,,4280.5999999996275,True,,,,Thumaze,,,,,,1649025,,,119,word-bank,,,,,,,
2921,Pilot,,,,,,"['facefacading', 'crowdcloaking', 'visageveiling', 'swarmshrouding']",,word_bank_trial,,,,,,0.0-7.0-48.0,True,,,,,,,,,,,,9424.900000000373,,,True,,crowdcloaking,,,,,,1658452,,,120,word-bank,,,,,,,
2921,Pilot,,,,,,"['Wenlure', 'Sunont', 'Toonix', 'Monzal']",,word_bank_trial,,,,,,0.0-7.0-49.0,True,,,,,,,,,,,,7331.0999999996275,,True,,,Wenlure,,,,,,1665787,,,121,word-bank,,,,,,,
2921,Pilot,,,,,,"['herdblurring', 'mugmuddling', 'huddlehiding', 'swarmshrouding']",,word_bank_trial,,,,,,0.0-7.0-50.0,True,,,,,,,,,,,,22768.900000000373,,,,True,herdblurring,,,,,,1688559,,,122,word-bank,,,,,,,
2921,Pilot,,,,,,"['Monzal', 'Sunont', 'Frivince', 'Wenlure']",,word_bank_trial,,,,,,0.0-7.0-51.0,True,,,,,,,,,,,,15542.800000000743,,True,,,Wenlure,,,,,,1704105,,,123,word-bank,,,,,,,
2921,Pilot,,,,,,"['Thumaze', 'Monzal', 'Frivince', 'Toonix']",,word_bank_trial,,,,,,0.0-7.0-52.0,True,,,,,,,,,,,,4765.800000000745,True,,,,Thumaze,,,,,,1708875,,,124,word-bank,,,,,,,
2921,Pilot,,,,,,"['crowdcloaking', 'facefacading', 'huddlehiding', 'visageveiling']",,word_bank_trial,,,,,,0.0-7.0-53.0,True,,,,,,,,,,,,7299.4000000003725,,,True,,crowdcloaking,,,,,,1716178,,,125,word-bank,,,,,,,
2921,Pilot,,,,,,"['visageveiling', 'swarmshrouding', 'facefacading', 'crowdcloaking']",,word_bank_trial,,,,,,0.0-7.0-54.0,True,,,,,,,,,,,,17691.900000000373,,,True,,crowdcloaking,,,,,,1733873,,,126,word-bank,,,,,,,
2921,Pilot,,,,,,"['visageveiling', 'huddlehiding', 'herdblurring', 'swarmshrouding']",,word_bank_trial,,,,,,0.0-7.0-55.0,True,,,,,,,,,,,,8579.200000001118,,,,True,herdblurring,,,,,,1742456,,,127,word-bank,,,,,,,
2921,Pilot,,,,,,"['Toonix', 'Wenlure', 'Frivince', 'Thufine']",,word_bank_trial,,,,,,0.0-7.0-56.0,True,,,,,,,,,,,,11269.599999999627,,True,,,Wenlure,,,,,,1753728,,,128,word-bank,,,,,,,
2921,Pilot,,,,,,,,passed_task,,,,,,0.0-7.0-57.0,,,,,,,,,,,0,,1617,,,,,,,,Great job! You passed the word learning task.,,,1755349,,,129,html-button-response,,,,,,,
2921,Pilot,,,,,,,,,,,,,,0.0-8.0-0.0,,,,,,,,,,,j,,29400,,,,,,,,"<div style=""max-width: 1000px; margin: 0 auto; text-align: left;"">
            Fantastic! Your next task involves categorizing words based using your keyboard. Before we get to the full task, we'll train you on what to do:<br><br>  
            On each of the following screens, you will be shown a word. 
            If this word is is a vegetable, press <b>'f'</b>. 
            If this word is a fruit, press <b>'j'.</b></p><p style = ""text-align: center"">When you are ready to begin, press 'j'</p></div>",,,1784750,,,130,html-keyboard-response,,,,,,,
2921,Pilot,,,,,,,,LexicalDecisionTraining,,,,,,0.0-8.0-1.0-0.0,,,,,,,,,,,j,,2101,,,,,,,,strawberry,,,1786852,,,131,html-keyboard-response,,,,,,,
2921,Pilot,,,,,,,,LexicalDecisionTraining,,,,,,0.0-8.0-1.0-0.1,,,,,,,,,,,f,,1043,,,,,,,,broccoli,,,1787898,,,132,html-keyboard-response,,,,,,,
2921,Pilot,,,,,,,,LexicalDecisionTraining,,,,,,0.0-8.0-1.0-0.2,,,,,,,,,,,j,,1009,,,,,,,,apple,,,1788910,,,133,html-keyboard-response,,,,,,,
2921,Pilot,,,,,,,,LexicalDecisionTraining,,,,,,0.0-8.0-1.0-0.3,,,,,,,,,,,f,,1617,,,,,,,,carrot,,,1790531,,,134,html-keyboard-response,,,,,,,
2921,Pilot,,,,,,,,,,,,,,0.0-8.0-2.0,,,,,,,,,,,j,,22003,,,,,,,,"<div style=""max-width: 1000px; margin: 0 auto; text-align: left;"">
        Great work! You're ready to move onto the full task. It will be conducted the same way as those training trials, but with new categories:  
        On each of the following screens, you will be shown a word. 
        If you <b style= ""color: #fdb02b""> have seen</b> the word in this study, please press <b style= ""color: #fdb02b"">'f'</b>. 
        If you <b style= ""color: #4dc5fe""> have not not seen</b> the word in this study, please press <b style= ""color: #4dc5fe"">'j'.</b></p>
        <p style = ""text-align: center"">When you are ready to begin, press 'j'</p></div>",,,1812536,,,135,html-keyboard-response,,,,,,,
2921,Pilot,"['seen', 'not seen']",,,,,,,LexicalDecision,,,filler,,,0.0-8.0-3.0-0.0,,,luigi,,,,,,,,f,,2136,,,,,,seen,correct,Luigi Mangione,,,1814673,,,136,html-keyboard-response,,,,,,,
2921,Pilot,"['seen', 'not seen']",,,,,,,LexicalDecision,,,distractor,,,0.0-8.0-3.0-0.1,,,NA,,,,,,,,j,,1864,,,,,,not seen,correct,Settlers of Catan,,,1816541,,,137,html-keyboard-response,,,,,,,
2921,Pilot,"['seen', 'not seen']",,,,,,,LexicalDecision,,,distractor,,,0.0-8.0-3.0-0.2,,,martialArts,,,,,,,,j,,1707,,,,,,not seen,correct,Domari,,,1818251,,,138,html-keyboard-response,,,,,,,
2921,Pilot,"['seen', 'not seen']",,,,,,,LexicalDecision,,,distractor,,,0.0-8.0-3.0-0.3,,,martialArts,,,,,,,,f,,1571,,,,,,not seen,incorrect,Churako,,,1819826,,,139,html-keyboard-response,,,,,,,
2921,Pilot,"['seen', 'not seen']",,,,,,,LexicalDecision,,,distractor,,,0.0-8.0-3.0-0.4,,,tattoos,,,,,,,,j,,1358,,,,,,not seen,correct,tessamorph,,,1821187,,,140,html-keyboard-response,,,,,,,
2921,Pilot,"['seen', 'not seen']",,,,,,,LexicalDecision,,,distractor,,,0.0-8.0-3.0-0.5,,,NA,,,,,,,,j,,1651,,,,,,not seen,correct,Mario Lopez,,,1822841,,,141,html-keyboard-response,,,,,,,
2921,Pilot,"['seen', 'not seen']",,,,,,,LexicalDecision,,,distractor,,,0.0-8.0-3.0-0.6,,,tattoos,,,,,,,,j,,2010,,,,,,not seen,correct,interforme,,,1824854,,,142,html-keyboard-response,,,,,,,
2921,Pilot,"['seen', 'not seen']",,,,,,,LexicalDecision,,,critical,,,0.0-8.0-3.0-0.7,,,drugs,,,,,,,,f,,953,,,,,,seen,correct,Wenlure,,,1825810,,,143,html-keyboard-response,,,,,,,
